msg_timestamp,receive_timestamp,system_timestamp_ns,orientation_x,orientation_y,orientation_z,orientation_w,angular_velocity_x,angular_velocity_y,angular_velocity_z,linear_acceleration_x,linear_acceleration_y,linear_acceleration_z
15.24,1765500280.2750797,1765500280275086295,-3.228132379919941e-06,2.5961774915101205e-08,-2.9905301183270807e-10,0.9999999999947892,-0.005937306284740802,-0.0022272607385085273,0.0016801412714881818,0.04029569813479079,-0.0033122173295827783,9.78994224883683
15.245,1765500280.2795653,1765500280279571117,-3.2281323802022035e-06,2.596177634853893e-08,-2.990530118598131e-10,0.9999999999947892,-7.468602480390574e-05,-0.0028288284246654432,0.002299166980531259,-0.05454457412050375,0.0070162180902030675,9.802876131149052
15.25,1765500280.285099,1765500280285104504,-3.2281323804845755e-06,2.5961774709429e-08,-2.990530118598131e-10,0.9999999999947892,0.0012698834967237896,0.00015554142539057293,0.0032146261969818145,0.05106139873971374,-0.03750382501762345,9.81982201680103
15.255,1765500280.2901647,1765500280290169102,-3.2281323807668386e-06,2.5961773070251313e-08,-2.990530118801419e-10,0.9999999999947892,-0.003437941813813405,0.004365078152824959,-0.0015291273025333698,0.030008800769920952,0.03515654840307175,9.796846609393132
15.26,1765500280.295211,1765500280295215901,-3.22813237797676e-06,2.596177757602665e-08,-2.9905301160909137e-10,0.9999999999947892,-0.004750677632826371,-0.0020950293847104492,-0.003181498654682877,-0.036562218570376524,-0.010499684163221864,9.832030000672573
15.265,1765500280.300615,1765500280300621569,-3.22813238133136e-06,2.5961775937140314e-08,-2.9905301190724697e-10,0.9999999999947892,0.0029384565764813938,-0.0033883947074944605,0.0012460142122770954,0.05065098153275738,-0.0056166050568712345,9.765818244586654
15.27,1765500280.305627,1765500280305632923,-3.2281323816136505e-06,2.596177429793552e-08,-2.99053011934352e-10,0.9999999999947892,0.0011415344165583937,0.006328610593431883,-9.495766415241379e-05,0.04506281841252908,-0.014061289831311302,9.88560709419967
15.275,1765500280.310484,1765500280310488074,-3.2281323818959983e-06,2.5961772658784935e-08,-2.9905301196823334e-10,0.9999999999947892,-0.0038197381544840276,-0.0024616046455872244,-0.002119890068983527,0.009486383303998806,-0.03812531630707889,9.781091211354475
15.28,1765500280.3154929,1765500280315498227,-3.2281323821783098e-06,2.596177409223621e-08,-2.9905301198178587e-10,0.9999999999947892,-0.0039617876794442895,0.0005837694311392,-0.002635682125983769,-0.042952116611636865,-0.08110018418772122,9.82356734872012
15.285,1765500280.320706,1765500280320712976,-3.2281323793881455e-06,2.5961775525545217e-08,-2.990530117175116e-10,0.9999999999947892,-0.0050960442998318626,-0.005142062464085291,0.0012866752868964477,-0.05117977858627515,0.08576920735496064,9.81127496142373
15.29,1765500280.3256214,1765500280325626079,-3.2281323796704146e-06,2.596177388640819e-08,-2.990530117310641e-10,0.9999999999947892,-0.0008967612298473874,0.0035008466764242696,-0.0014747360629982983,-0.019986086479076518,0.05866421723809663,9.826687729503709
15.295,1765500280.3305485,1765500280330553140,-3.228132379952743e-06,2.596177531982558e-08,-2.990530117378404e-10,0.9999999999947892,-0.0002386718947957696,-0.0013134128595453933,-0.0036327191620437274,-0.020911213407366167,-0.017763151463888138,9.778748255932213
15.3,1765500280.335851,1765500280335856403,-3.2281323802350294e-06,2.596177368061401e-08,-2.990530117513929e-10,0.9999999999947892,0.0024799300981222525,-0.0017810190944065503,-0.0011935976011248134,0.0723186095528073,-0.0281286848763438,9.846413980231178
15.305,1765500280.34064,1765500280340648714,-3.228132383589824e-06,2.596177204148372e-08,-2.9905301205632477e-10,0.9999999999947892,-0.00044442780974931296,-0.0014263265237744007,0.004163763047547679,-0.02680526778656783,-0.004015941812061508,9.813510188105344
15.31,1765500280.3459685,1765500280345973075,-3.228132380799678e-06,2.5961776547218402e-08,-2.990530117920505e-10,0.9999999999947892,-0.0018105041663142927,0.001323119000358105,-0.0018734928669453348,-0.016714799606607687,0.019501959152144747,9.894051045083057
15.315,1765500280.3513515,1765500280351356486,-3.2281323810817765e-06,2.5961774908298223e-08,-2.990530117920505e-10,0.9999999999947892,0.0046505667464252585,0.00012653632802624563,-0.003224859257866016,-0.01122461796558815,0.051727857834745,9.84955246260158
15.32,1765500280.3564734,1765500280356478123,-3.2281323813640858e-06,2.5961773269120534e-08,-2.9905301181915554e-10,0.9999999999947892,0.0012854192772288743,0.001690993849630085,-0.0012483386278571834,0.028996966967462814,-0.009245196263526293,9.794362779928251
15.325,1765500280.3613558,1765500280361360010,-3.22813238164649e-06,2.596177470241595e-08,-2.990530118462606e-10,0.9999999999947892,-0.002330106465713156,0.00033132186380920134,-0.0023165450782466892,-0.04843043029962178,0.0053290132351721115,9.70654445420949
15.33,1765500280.3666103,1765500280366617945,-3.228132378856344e-06,2.596177613575884e-08,-2.990530115684338e-10,0.9999999999947892,0.0010681365925445101,-9.597516896371687e-05,0.0010727715550216093,-0.032589715466235104,0.019351494371750644,9.80634531873256
15.335,1765500280.3715847,1765500280371589892,-3.22813237913855e-06,2.5961774496737008e-08,-2.9905301159553884e-10,0.9999999999947892,0.004136507769740129,0.002320214439613969,0.0011360704442838136,-0.029652453136533242,-0.028125970328773328,9.78382105738044
15.34,1765500280.3765194,1765500280376525311,-3.2281323794209774e-06,2.596177593001887e-08,-2.990530116226439e-10,0.9999999999947892,0.006970867850422263,0.0004952325655119065,0.00029749024927253905,-0.021159751700835314,0.047652012876110574,9.875978901738922
15.345,1765500280.3813736,1765500280381377319,-3.2281323827756924e-06,2.5961774290997003e-08,-2.9905301191402323e-10,0.9999999999947892,5.3153796234513196e-05,0.0009587593253845278,0.002400387633008646,0.006209085123783674,-0.02190670764787538,9.852289986870652
15.35,1765500280.3866487,1765500280386653520,-3.228132383057964e-06,2.5961772651819317e-08,-2.9905301192757576e-10,0.9999999999947892,-0.004722905902865159,-0.0015680090415489541,0.003506769635153587,0.02359511176115836,0.03754194835494804,9.78671214319902
15.355,1765500280.39151,1765500280391513867,-3.228132380267817e-06,2.5961777157581106e-08,-2.990530116633015e-10,0.9999999999947892,0.0033330635843616474,-0.0011232716746464313,-0.001876209238955497,-0.010421301043442356,-0.06647577114440524,9.705928838120075
15.36,1765500280.3965273,1765500280396531104,-3.2281323805499567e-06,2.5961775518694802e-08,-2.99053011676854e-10,0.9999999999947892,-0.0017496624982345607,0.0005472368192976967,-0.0017896489307631317,-0.021739537290679987,-0.0002249036776711735,9.883347765515607
15.365,1765500280.4018464,1765500280401852371,-3.228132380832238e-06,2.5961773879469682e-08,-2.9905301170395906e-10,0.9999999999947892,0.00013779029485847666,-0.001464286561485868,-0.0009048326677679044,-0.052583248822381704,0.0069504450360761754,9.783643127627574
15.37,1765500280.4067447,1765500280406748629,-3.2281323811146558e-06,2.596177224019712e-08,-2.990530117107353e-10,0.9999999999947892,-0.0012247192652119867,0.0008225568761638848,0.002288868839784241,-0.040038302631777364,0.030688275327944825,9.713475985579281
15.375,1765500280.4118965,1765500280411908879,-3.228132378324468e-06,2.5961776746094436e-08,-2.99053011419356e-10,0.9999999999947892,-0.003235736156742093,0.0011248072691501959,0.0036268372714672492,-0.03746023893385392,-0.013642530609392379,9.786993440901442
15.38,1765500280.4173176,1765500280417325005,-3.2281323816791604e-06,2.596177510712678e-08,-2.990530117378404e-10,0.9999999999947892,-0.002148090669323257,-0.0039043153353730264,-0.004723775310439265,-0.023873108228760247,-0.006918909339698613,9.796261170684337
15.385,1765500280.4220674,1765500280422071265,-3.228132381961457e-06,2.5961773467928762e-08,-2.990530117717217e-10,0.9999999999947892,-0.0025827870199969937,-0.0006476920919471623,-0.0002835819862263711,-0.046007068615018736,0.01003791776775974,9.671871553288048
15.39,1765500280.4271555,1765500280427159082,-3.2281323822438447e-06,2.596177490120385e-08,-2.990530117852742e-10,0.9999999999947892,-0.001671375926746137,0.0012214547026356693,0.005109628184183737,-0.01823591617628274,-0.10662201914331698,9.764064138017556
15.395,1765500280.4321365,1765500280432140159,-3.2281323825260587e-06,2.596177326214814e-08,-2.99053011805603e-10,0.9999999999947892,0.0007471112166987143,-0.0019416926840165386,-0.0021046190995349223,-0.032795872434577406,0.040808491500057456,9.819591356955595
15.4,1765500280.437469,1765500280437473669,-3.228132379735854e-06,2.5961774695423266e-08,-2.990530115277762e-10,0.9999999999947892,-0.002846929471757445,-0.0013845074377607644,0.0025836812450566976,0.029343126096074576,0.079566908102377,9.83714737989277
15.405,1765500280.4423246,1765500280442329252,-3.228132380018116e-06,2.5961776128874543e-08,-2.9905301154132874e-10,0.9999999999947892,0.0049508277172855405,-0.005865807919782636,-0.0006406908956146041,-0.013626287480218532,0.013398786059194218,9.792503118937105
15.41,1765500280.4472008,1765500280447205051,-3.228132380300434e-06,2.5961774489751064e-08,-2.99053011548105e-10,0.9999999999947892,0.0007135544275306596,-0.00176140302177535,0.0028035077446934864,-0.08336506908769863,0.08747336853255279,9.850399633975474
15.415,1765500280.4526381,1765500280452642861,-3.2281323805827292e-06,2.5961772850559825e-08,-2.990530115684338e-10,0.9999999999947892,0.002721562351337467,-0.0018524123205008803,0.0019520808203244133,-0.05187262866372717,-0.04626800544505857,9.817419261783298
15.42,1765500280.457802,1765500280457811167,-3.228132380865116e-06,2.596177735642322e-08,-2.9905301159553884e-10,0.9999999999947892,-0.002009350715729992,-0.0003887484961006338,0.0028779058539389413,-0.014378616098941262,-0.03493573203445151,9.814462720558605
15.425,1765500280.4626741,1765500280462681929,-3.2281323811473317e-06,2.59617757173404e-08,-2.990530115887626e-10,0.9999999999947892,0.004467256922324962,0.0019338542110646127,0.0021640827187641982,-0.004047809305763275,0.03704572838146728,9.836793741989693
15.43,1765500280.4675462,1765500280467558161,-3.228132381429524e-06,2.5961774078332123e-08,-2.9905301160909137e-10,0.9999999999947892,0.0011550839644871237,0.0016651916733868434,0.00027978478114858325,-0.01535090251149699,0.020819615483233203,9.75444584838116
15.435,1765500280.4726064,1765500280472614800,-3.2281323817118966e-06,2.5961775511654648e-08,-2.990530116429727e-10,0.9999999999947892,-0.0005649779696747828,0.000565032680748767,0.0030527035964056626,0.040397784202056024,0.0038023448829407882,9.834229288005401
15.44,1765500280.4777546,1765500280477759297,-3.2281323819941487e-06,2.596177387257183e-08,-2.990530116429727e-10,0.9999999999947892,0.0014192698966658374,0.005480864156736203,7.572889665530325e-05,-0.008185182868436855,0.04296479612106964,9.780890615945296
15.445,1765500280.4828951,1765500280482903858,-3.228132379203987e-06,2.5961775305880838e-08,-2.990530113786984e-10,0.9999999999947892,-0.0023078707271944054,0.0025636214990672076,0.003926435255006402,-0.04337598913957229,0.08135432418500035,9.765681670594638
15.45,1765500280.4881132,1765500280488128734,-3.228132379486366e-06,2.5961776739264346e-08,-2.990530113786984e-10,0.9999999999947892,-0.0012885468139326073,-0.0006847603575616224,-0.002388547215874735,0.0014408288685522181,-0.008309872956905771,9.782196455343948
15.455,1765500280.4932325,1765500280493236390,-3.228132379768589e-06,2.5961775100167974e-08,-2.9905301139225094e-10,0.9999999999947892,-0.0021548998051441432,-0.0008518126529399679,0.00140226171882701,-0.008592742129907823,-0.012097943131923038,9.767325061390833
15.46,1765500280.4981124,1765500280498117849,-3.2281323800509005e-06,2.5961773460949627e-08,-2.99053011419356e-10,0.9999999999947892,-0.00167505084599326,-7.112893297271619e-05,0.0007886388715783761,0.05204432245423245,0.06966311494791985,9.709016321553916
15.465,1765500280.5036,1765500280503604857,-3.228132383405784e-06,2.5961774894305994e-08,-2.990530117378404e-10,0.9999999999947892,0.00011379124259998933,0.006171305776563635,-0.0012546047700684533,0.07572731449836714,0.028548870260258083,9.817279974399908
15.47,1765500280.5084167,1765500280508421088,-3.2281323806155073e-06,2.59617763277031e-08,-2.9905301146001357e-10,0.9999999999947892,0.0027834324154694407,0.002525234123138684,0.0008049003931195113,-0.010209568144026475,-0.060357129106017975,9.739625728913644
15.475,1765500280.5131254,1765500280513130700,-3.2281323808976895e-06,2.5961774688660942e-08,-2.990530114735661e-10,0.9999999999947892,0.0017672983188245896,0.003924826920755371,0.0010508292013828493,0.011576492712250324,-0.028341635135894695,9.841381184926526
15.48,1765500280.5186107,1765500280518614911,-3.2281323811800907e-06,2.5961776121976688e-08,-2.9905301150067115e-10,0.9999999999947892,0.0012966499805833732,-0.0001721979132424822,-0.0018881462068538685,0.06695511519002903,-0.03382232701904353,9.755636184166013
15.485,1765500280.5234652,1765500280523468554,-3.228132381462311e-06,2.5961774482934527e-08,-2.990530115142237e-10,0.9999999999947892,0.001959837404262639,0.003057679762406913,0.0056109561780580694,0.06366762870268436,0.0017761456334515538,9.768873861838026
15.49,1765500280.5284233,1765500280528426593,-3.228132378672234e-06,2.596177591613511e-08,-2.990530112363969e-10,0.9999999999947892,-0.0017055702435833362,0.005727597511267627,-0.0005497348780658955,0.026210844898845696,0.007500183036325529,9.792063674861641
15.495,1765500280.5337074,1765500280533711269,-3.2281323789545134e-06,2.5961774276943873e-08,-2.9905301126350193e-10,0.9999999999947892,-0.002106455346838771,0.003044129600541276,0.004437130332042508,-0.059233915104144115,0.0785203458792434,9.772952772172586
15.5,1765500280.5387127,1765500280538724224,-3.2281323792367206e-06,2.5961775710530675e-08,-2.9905301127705446e-10,0.9999999999947892,0.002432312295459912,0.000837606114744255,-0.0010712196098538991,-0.09224962229074006,0.09521459142834669,9.738632705131623
15.505,1765500280.5439014,1765500280543905481,-3.2281323825914988e-06,2.596177407141394e-08,-2.9905301159553884e-10,0.9999999999947892,-0.0038850077046245534,0.0034432250859673668,0.0020437384325836965,0.04366152811870566,0.03266652100475069,9.749248095678109
15.51,1765500280.5488117,1765500280548816944,-3.2281323828738017e-06,2.5961772432256578e-08,-2.9905301161586764e-10,0.9999999999947892,0.0004113742437835926,0.005472750296758245,0.0008734177834856549,-0.01703037872235432,-0.021280344595434663,9.80480017534946
15.515,1765500280.5544324,1765500280554436401,-3.228132380083683e-06,2.5961776938025143e-08,-2.9905301133804083e-10,0.9999999999947892,-0.0017001376514679254,0.00318079555993976,-0.003289378036417126,0.03331399879421879,0.004594572452890359,9.79870825722836
15.52,1765500280.5590951,1765500280559103383,-3.228132380365748e-06,2.5961775299084633e-08,-2.990530113583696e-10,0.9999999999947892,2.4614436603672797e-05,-0.0005187869600616747,0.0003856295638538101,0.04366183466648027,-0.07767618273065481,9.79748375277435
15.525,1765500280.564382,1765500280564385687,-3.2281323806481773e-06,2.5961773659805296e-08,-2.990530113651459e-10,0.9999999999947892,0.004353563050672709,0.0019779046320015747,0.004418594017835351,-0.03010480481237542,-0.01265652466037883,9.840186115382803
15.53,1765500280.5696235,1765500280569628205,-3.228132380930554e-06,2.5961775093107488e-08,-2.9905301138547467e-10,0.9999999999947892,0.0017528953828407968,0.005561703428567304,8.29346216092146e-07,0.006025104324591415,-0.08134657257210867,9.858357648664672
15.535,1765500280.5744953,1765500280574499849,-3.2281323781402674e-06,2.5961776526524924e-08,-2.9905301111442413e-10,0.9999999999947892,0.0011228894643982015,-0.0010019166986166657,0.0021111880145843836,-0.04073715163872682,-0.06793202196238576,9.754586447271432
15.54,1765500280.5795498,1765500280579556799,-3.2281323814950765e-06,2.5961774887428513e-08,-2.990530114329085e-10,0.9999999999947892,0.0040561420194343955,0.0031925175676155,-0.0028994063498654194,0.058950280021293266,0.08156322907769605,9.81763054332727
15.545,1765500280.5847793,1765500280584788427,-3.228132381777344e-06,2.5961776320852685e-08,-2.9905301146001357e-10,0.9999999999947892,0.0008450353943893383,-0.0024607848182138865,0.0002643363563205954,0.0028864125132224885,0.01924341650091087,9.820367861514681
15.55,1765500280.58964,1765500280589644746,-3.2281323820595617e-06,2.596177468179697e-08,-2.9905301146001357e-10,0.9999999999947892,-0.00348664826072484,-0.0011424031965682284,0.0008529472843133593,0.030278662025501626,0.044410797714244284,9.805692651576152
15.555,1765500280.5945742,1765500280594577846,-3.2281323823418502e-06,2.5961773042585404e-08,-2.990530114735661e-10,0.9999999999947892,0.0024712847826451573,0.0010177608028937672,0.002143765017135472,-0.02989424875448795,-0.017085003280091323,9.775063712711809
15.56,1765500280.5999491,1765500280599953395,-3.228132379551796e-06,2.5961777548401396e-08,-2.990530112160681e-10,0.9999999999947892,0.005818357902071724,0.0060539594859105915,-0.0033203389187041877,-0.038979587938846115,-0.08527893443271753,9.745833797351313
15.565,1765500280.6048892,1765500280604892970,-3.2281323798340245e-06,2.596177590941345e-08,-2.9905301122284435e-10,0.9999999999947892,-0.0026641572694609626,-0.0032020006397970487,7.39076234746277e-05,0.00019284997898021887,0.05077871886425479,9.815580543012572
15.57,1765500280.6101034,1765500280610107793,-3.2281323801163673e-06,2.5961774270222203e-08,-2.990530112499494e-10,0.9999999999947892,0.0011909681358205303,0.0008052540502993023,0.001784425067949902,0.0013688348669568485,-0.00010799746776541554,9.849591913478571
15.575,1765500280.615156,1765500280615168239,-3.228132380398668e-06,2.596177263101741e-08,-2.990530112702782e-10,0.9999999999947892,0.00017458677370107005,0.0013374736629124932,0.00662842172007858,0.005016499965105481,-0.017501999134355014,9.808192108331541
15.58,1765500280.6204865,1765500280620495342,-3.2281323806809715e-06,2.596177406444158e-08,-2.990530112702782e-10,0.9999999999947892,0.006070352768379022,0.002205943808847154,0.0018736088184704756,0.0018444740234826436,-0.04838620539047735,9.798937791057138
15.585,1765500280.6254516,1765500280625460677,-3.22813238096329e-06,2.596177549781154e-08,-2.990530112838307e-10,0.9999999999947892,-0.002558574841783636,-0.004530165534074845,-0.00015051662178292921,-0.011470568537023657,-0.05579016850672489,9.797927412493934
15.59,1765500280.6301765,1765500280630188206,-3.2281323812454715e-06,2.5961773858776157e-08,-2.990530113109358e-10,0.9999999999947892,0.000928228502215817,0.00012858203061010692,0.002321457293680405,-0.010866892237188229,0.005092910359235348,9.850597301880347
15.595,1765500280.635313,1765500280635316945,-3.2281323815277787e-06,2.5961775292179997e-08,-2.9905301133126456e-10,0.9999999999947892,0.0030953994450904133,0.0011153060259289469,0.003152310583417407,-0.030795877030667416,-0.016078478629466646,9.79245795534791
15.6,1765500280.640366,1765500280640371319,-3.2281323818100978e-06,2.596177365301586e-08,-2.9905301135159336e-10,0.9999999999947892,0.0019373773749814947,0.0021586448051300056,-0.0002032616662566538,0.009976659810440243,-0.039771475268319034,9.852682279519287
15.605,1765500280.6453037,1765500280645307596,-3.2281323790198937e-06,2.5961775086297767e-08,-2.990530110873191e-10,0.9999999999947892,-0.0017263419370844959,0.0003211165608946405,-0.0003920538545939173,0.030862537205449993,0.0808777919134981,9.804315693248457
15.61,1765500280.650653,1765500280650658117,-3.2281323793023885e-06,2.5961776519532194e-08,-2.990530111008716e-10,0.9999999999947892,-0.002922751779351999,-0.0021491414315586957,0.0015723750701600126,-0.003295504588961564,0.026469381633080994,9.814035111665223
15.615,1765500280.6556845,1765500280655690503,-3.2281323795844797e-06,2.596177488057813e-08,-2.9905301111442413e-10,0.9999999999947892,-0.0009991126681567568,0.004588452825026,-0.0030308772300532286,-0.044244011698837675,-0.0196580187311106,9.816225060763816
15.62,1765500280.6604822,1765500280660487768,-3.228132379866802e-06,2.596177324138689e-08,-2.990530111550817e-10,0.9999999999947892,0.0019989602441073985,-0.003840263885862614,0.005684530099280018,0.048722343994745246,0.022390073516153703,9.81655744250881
15.625,1765500280.6657927,1765500280665797465,-3.2281323832217358e-06,2.5961774674770356e-08,-2.990530114735661e-10,0.9999999999947892,-0.0015929623392417832,-0.0024575474118557696,-0.000911157531021369,-0.0017767315191059962,-0.0792237989789148,9.882702387595273
15.63,1765500280.6709528,1765500280670957577,-3.2281323804314356e-06,2.5961776108160687e-08,-2.990530111957393e-10,0.9999999999947892,0.0035389105158795038,-8.15191170075564e-05,-0.0022281111792034616,-0.08424630408266265,0.004754446734388391,9.81800895515965
15.635,1765500280.6762578,1765500280676263128,-3.228132380713648e-06,2.5961774469138858e-08,-2.9905301122284435e-10,0.9999999999947892,0.0009014202123117724,-0.0008795884008909596,0.002990784449278798,-0.06235402821473795,0.008089882904075215,9.772222302194018
15.64,1765500280.6810346,1765500280681046273,-3.228132380996052e-06,2.596177590246138e-08,-2.9905301124317314e-10,0.9999999999947892,-0.0017099084852530062,-0.00047512120241316284,-0.002034266843050502,-0.020837060765352692,0.015826503496691617,9.815494719536176
15.645,1765500280.6863613,1765500280686365677,-3.2281323812782818e-06,2.5961774263392113e-08,-2.9905301126350193e-10,0.9999999999947892,0.0020520016800981943,-0.00024301195830087616,0.0011524042168971802,-0.023131339490308364,-0.07711496712789734,9.829813564558284
15.65,1765500280.6915872,1765500280691592646,-3.2281323815606724e-06,2.5961772624106e-08,-2.990530112702782e-10,0.9999999999947892,0.002676286935846913,-0.001976252189963651,-0.0007735189243744847,0.04960472078990336,-0.052905705396520876,9.784188113915157
15.655,1765500280.6963413,1765500280696345931,-3.228132378770582e-06,2.5961777129888115e-08,-2.990530110060039e-10,0.9999999999947892,-0.00039900701703774957,-0.0017753305693489609,0.0018464825807476166,-0.011667825313423752,-0.04156960073959315,9.869643962810336
15.66,1765500280.7016802,1765500280701686138,-3.2281323790526985e-06,2.596177549097471e-08,-2.9905301101955644e-10,0.9999999999947892,0.0003490138275491213,-2.1273286774676208e-05,0.0002319299867767845,0.040719217214226895,0.046448804304535816,9.772423446998024
15.665,1765500280.7063,1765500280706306859,-3.2281323824075118e-06,2.5961773851898627e-08,-2.9905301133804083e-10,0.9999999999947892,-0.0006489687344081184,0.004246786906560962,0.000545278960460257,0.014504358676931704,0.03767935536034477,9.782667661603194
15.67,1765500280.711326,1765500280711333447,-3.2281323826899016e-06,2.596177528518049e-08,-2.9905301135159336e-10,0.9999999999947892,0.003155639029326257,0.0004434371405023443,-0.0032112021422032277,-0.04524856416324114,-0.020935724732903806,9.797243331441788
15.675,1765500280.7165184,1765500280716527191,-3.22813237989965e-06,2.59617767186047e-08,-2.990530110669903e-10,0.9999999999947892,0.004434917288847476,-0.0007720269872717201,-0.0028551152241952666,0.03038997069829579,-0.00963785415566122,9.80411573621459
15.68,1765500280.7216141,1765500280721618471,-3.228132380181852e-06,2.5961775079576094e-08,-2.990530110873191e-10,0.9999999999947892,-0.004540793409496527,0.00100069257467238,-0.0018718157390669368,-0.04299619927639625,0.08019180554578964,9.749759709094057
15.685,1765500280.7267864,1765500280726791715,-3.22813238046413e-06,2.5961773440384855e-08,-2.990530111008716e-10,0.9999999999947892,-0.0007755650545337344,-0.00029896555906463253,-0.0007743869916803717,0.008657045557835353,0.04978332680365292,9.847791280374448
15.69,1765500280.7318156,1765500280731819644,-3.228132380746549e-06,2.5961774873781912e-08,-2.990530111008716e-10,0.9999999999947892,-0.0016472169953803365,0.0011496048532101683,0.0017114516366859578,0.004919035035511658,0.051843271915690145,9.743332696674496
15.695,1765500280.7370849,1765500280737089090,-3.228132381028874e-06,2.5961773234617775e-08,-2.990530111415292e-10,0.9999999999947892,0.0023731155458623916,0.002345624091969429,0.0010825038562401023,-0.012161007458170687,-0.014123472483063221,9.893626916325157
15.7,1765500280.7422,1765500280742204336,-3.2281323782386625e-06,2.5961774667899682e-08,-2.9905301085014985e-10,0.9999999999947892,-0.0002339130767863848,-0.00011219559822655635,-0.006635692034839241,0.09055814340298897,-0.10001599508160278,9.783996003982102
15.705,1765500280.7471247,1765500280747127966,-3.2281323815934343e-06,2.596177610142546e-08,-2.99053011161858e-10,0.9999999999947892,-0.0015377680546962127,-0.0010412018921613314,0.0035315812490360745,0.03339615625839574,0.04131626252833958,9.791162568800909
15.71,1765500280.7524617,1765500280752466590,-3.2281323818756734e-06,2.59617744623833e-08,-2.9905301118218677e-10,0.9999999999947892,0.0005869236342715613,-0.0010110804343164048,0.0019573199128815233,-0.01863176178662444,0.07655741904647952,9.774800251601947
15.715,1765500280.75736,1765500280757364308,-3.2281323821579653e-06,2.596177282320561e-08,-2.990530112092918e-10,0.9999999999947892,0.0006765983848619596,0.0006411749366644944,-0.0004927161582986315,-0.06332140316148285,-0.06493330700136206,9.79591991433633
15.72,1765500280.7623272,1765500280762331298,-3.228132379367839e-06,2.5961777328953847e-08,-2.9905301094501754e-10,0.9999999999947892,0.0005857521211715876,-0.0012391051729210396,0.00031403153874013685,-0.04322805005056964,-0.0577397447978649,9.796357525446753
15.725,1765500280.7674797,1765500280767484033,-3.2281323796500303e-06,2.5961775689850703e-08,-2.9905301094501754e-10,0.9999999999947892,-0.0022329326222123727,0.0005211608873756984,-0.002553951464068776,0.05555650717749387,-0.034094932117276516,9.746579829759591
15.73,1765500280.7724612,1765500280772466013,-3.2281323799323473e-06,2.5961774050781434e-08,-2.9905301096534633e-10,0.9999999999947892,-0.0020175376425988416,-0.0010004887333419376,-0.0002462515330127923,-0.011285536075809437,-0.03481186378691645,9.823455737526018
15.735,1765500280.7782056,1765500280778215540,-3.22813238021477e-06,2.5961775484103952e-08,-2.990530109924514e-10,0.9999999999947892,0.0001496527916159815,-0.0022923692941493414,0.002878907894611297,0.01410266377874518,-0.06576130786660278,9.799695600531905
15.74,1765500280.783122,1765500280783129671,-3.2281323804970328e-06,2.5961773845048238e-08,-2.990530110127802e-10,0.9999999999947892,0.0029544760669253985,0.002109339595564166,0.0027867151427701745,0.02280432333070878,-0.015362815469700827,9.787350387494449
15.745,1765500280.788205,1765500280788209483,-3.2281323807793874e-06,2.5961775278418197e-08,-2.9905301103310897e-10,0.9999999999947892,0.0018507664393918992,-0.0021691083878682786,0.0017208496978122383,0.015454986201615284,0.034739744421313265,9.819930925515104
15.75,1765500280.7935174,1765500280793526561,-3.228132381061641e-06,2.5961776711835592e-08,-2.9905301105343776e-10,0.9999999999947892,-0.004201417081958941,0.0037060834393636615,0.00021252860750234113,0.01482549964299754,-0.004557839444740468,9.79228992440361
15.755,1765500280.7983663,1765500280798374245,-3.228132381343888e-06,2.5961775072773103e-08,-2.9905301107376655e-10,0.9999999999947892,-0.0044346185333460535,0.0031668062390313623,-0.001017123028267414,0.003085439344315645,-0.04625123553854332,9.797843431546902
15.76,1765500280.8036141,1765500280803619578,-3.2281323816261743e-06,2.596177343360219e-08,-2.990530110873191e-10,0.9999999999947892,-0.004748362608578431,-0.001643613544997084,0.002265146459579272,-0.03690002769072015,0.004220989695641686,9.808322033722975
15.765,1765500280.8081536,1765500280808164155,-3.2281323819085717e-06,2.5961774866911158e-08,-2.9905301111442413e-10,0.9999999999947892,-0.0006853572721938276,0.0021362677042526795,-0.002324300518018474,-0.010247449452590358,0.0020204652990043885,9.830820342184351
15.77,1765500280.8133175,1765500280813321909,-3.2281323791184426e-06,2.5961776300294706e-08,-2.990530108230448e-10,0.9999999999947892,-0.0011232529972774134,0.001470013579806427,0.005704853751026792,0.023565548526844775,0.07366561261401575,9.798280137205447
15.775,1765500280.8186977,1765500280818701985,-3.2281323794006384e-06,2.5961774661259324e-08,-2.9905301085014985e-10,0.9999999999947892,-0.0009486018070021576,-0.0019238635432455656,2.739263692686811e-05,0.09280234089593148,-0.026951670975219045,9.777347904389025
15.78,1765500280.8234122,1765500280823421534,-3.228132379683034e-06,2.5961776094561517e-08,-2.990530108637024e-10,0.9999999999947892,0.0005713553501771903,0.0029077211432624486,0.0033139015523278715,-0.022552322805149162,-0.05862157820982587,9.813469135391705
15.785,1765500280.8285732,1765500280828577692,-3.2281323830377814e-06,2.5961774455546424e-08,-2.990530111550817e-10,0.9999999999947892,0.002477191121443963,-0.0030072999106360155,0.0021976634342583843,0.012132974991670941,0.01997135816808351,9.698191277955699
15.79,1765500280.833621,1765500280833630073,-3.2281323833200856e-06,2.5961772816361958e-08,-2.9905301118218677e-10,0.9999999999947892,0.001545831030534503,0.000205175739259157,-0.004491644531827314,0.020655607922763764,-0.002753605724379111,9.692530267949294
15.795,1765500280.8390715,1765500280839075487,-3.228132380529928e-06,2.5961774249657414e-08,-2.990530108975837e-10,0.9999999999947892,3.4815467978977216e-05,0.0013445681397104494,0.0013472379656356873,0.04618937875562402,-0.0031056260964897205,9.78052371947341
15.8,1765500280.8442519,1765500280844255869,-3.2281323808121134e-06,2.5961775683217115e-08,-2.990530109179125e-10,0.9999999999947892,-0.003794376081912542,-0.0012592139937000896,-0.0017505694768833824,-0.012793743599592752,0.014840024908048633,9.769434945021727
15.805,1765500280.8495142,1765500280849520059,-3.2281323810943867e-06,2.596177404398522e-08,-2.990530109517938e-10,0.9999999999947892,-0.0017177988190079014,-0.0040001643625961585,0.0019566171426650338,0.009346292357248358,-0.07775426425059763,9.737307114457144
15.81,1765500280.854615,1765500280854620064,-3.2281323813767942e-06,2.5961772404726207e-08,-2.990530109517938e-10,0.9999999999947892,-0.0009821865021179188,0.000997420364381295,-0.0016836266597955937,0.04902445889318287,0.009841234600509402,9.80323951022714
15.815,1765500280.8595455,1765500280859549946,-3.228132378586695e-06,2.5961776910501545e-08,-2.990530106875195e-10,0.9999999999947892,-0.0007604157675911019,0.0002589861761193412,-0.0035433734070237158,0.11753747118897383,-0.029068984192556973,9.833301559531112
15.82,1765500280.8646557,1765500280864664167,-3.2281323788687775e-06,2.5961775271533933e-08,-2.990530106942958e-10,0.9999999999947892,-0.0013325193019890617,-0.00020619198305311647,0.0009254741120883803,0.01736325096596304,-0.017777288475773718,9.793832842394913
15.825,1765500280.8693864,1765500280869402861,-3.2281323822236184e-06,2.596177363242397e-08,-2.990530110127802e-10,0.9999999999947892,0.003925318926220113,0.0012848191420339146,-0.0008090243533185029,-0.026138362611736392,0.010836376734955378,9.737956874609953
15.83,1765500280.8747432,1765500280874751650,-3.2281323825060395e-06,2.596177506573971e-08,-2.9905301103310897e-10,0.9999999999947892,0.004248818743303309,-0.0012500285410756832,0.0011444241468158104,0.06440443041674186,0.024420472829704443,9.784853020638142
15.835,1765500280.8792686,1765500280879275313,-3.2281323797157287e-06,2.5961776499123266e-08,-2.990530107485059e-10,0.9999999999947892,0.0025033987541159737,0.0018301572893909053,0.0015134030996795625,0.01444766974989418,-0.07353842085127474,9.79813550774286
15.84,1765500280.8855093,1765500280885518532,-3.2281323799980414e-06,2.5961774859952352e-08,-2.990530107823872e-10,0.9999999999947892,0.0028659778647067845,0.002437978712169075,0.0017938163235282905,0.028935247080836803,-0.023307715742842783,9.778686193087164
15.845,1765500280.8897555,1765500280889773826,-3.2281323802802936e-06,2.5961776293444287e-08,-2.99053010802716e-10,0.9999999999947892,-0.005861312722798001,-0.0012618311128705004,0.0016968449141527883,0.026138363641943975,-0.010007878557347416,9.813314495980629
15.85,1765500280.8946915,1765500280894698805,-3.2281323805626728e-06,2.596177465428015e-08,-2.9905301080949227e-10,0.9999999999947892,2.6348000939227655e-05,0.0025423076271827135,0.0017207088570942901,0.020357962182902124,-0.05112714650417963,9.848124538253847
15.855,1765500280.899955,1765500280899959678,-3.228132380844995e-06,2.5961773015088908e-08,-2.990530108230448e-10,0.9999999999947892,0.0021422392497461988,-2.1279344343755076e-05,-0.0014175241397741659,-0.012518704511377446,0.009734979972015166,9.800050624130845
15.86,1765500280.905064,1765500280905067849,-3.228132378054915e-06,2.5961777520850693e-08,-2.99053010545218e-10,0.9999999999947892,-0.006197937252121403,-0.003562444757604982,-0.006725964004046189,-0.0527106618338062,0.008124647785593884,9.782665777962594
15.865,1765500280.9103663,1765500280910372566,-3.2281323814095083e-06,2.596177588201179e-08,-2.990530108569261e-10,0.9999999999947892,-0.005110642168724697,-0.000787233026245382,-0.0009632934350426727,-0.040039330692702615,-0.05823544920874388,9.798971475414499
15.870000000000001,1765500280.9155312,1765500280915540038,-3.228132381691762e-06,2.5961774242793446e-08,-2.9905301087047864e-10,0.9999999999947892,0.0032851603998327976,0.001084227124601032,0.004672435207176798,-0.011277478043641743,-0.03426915872185916,9.81648263102272
15.875,1765500280.9204261,1765500280920430473,-3.228132381974096e-06,2.5961772603608977e-08,-2.990530108975837e-10,0.9999999999947892,0.0003326020315359074,-0.0005716508011327716,0.004720172793654856,-0.013725274833150832,0.003483414461308749,9.808567787267197
15.88,1765500280.9253874,1765500280925391490,-3.2281323822564032e-06,2.5961774037039925e-08,-2.990530109111362e-10,0.9999999999947892,0.0011376924054843003,0.0028550384652412802,0.002259629156516632,-0.0004308256479166598,-0.0042069528695409305,9.78415479896374
15.885,1765500280.930335,1765500280930339093,-3.2281323794662293e-06,2.5961775470342158e-08,-2.990530106400857e-10,0.9999999999947892,9.169896221196939e-05,0.00027301692874745595,-0.0022256877752896247,0.043721331981637815,0.015001406593199885,9.785836637066563
15.89,1765500280.9355235,1765500280935527852,-3.228132379748503e-06,2.5961773831225458e-08,-2.9905301066041447e-10,0.9999999999947892,0.00014087754545236112,-0.00019771746279061036,-0.0022416592707542944,-0.012144630866912849,-0.017579384336154445,9.7570760688118
15.895,1765500280.9404345,1765500280940437750,-3.228132380030823e-06,2.5961775264710613e-08,-2.99053010673967e-10,0.9999999999947892,-0.0029202377762395787,-0.0016226774970229776,0.0016698291737851133,-0.040011525592622804,-0.004140540044760103,9.791511303569258
15.9,1765500280.945484,1765500280945495372,-3.228132380313121e-06,2.596177362551937e-08,-2.990530106942958e-10,0.9999999999947892,-0.00032103265289257097,-0.0022210885247876213,-0.004244975620111616,-0.029095335242004416,-0.009181115427464389,9.811457771035824
15.905,1765500280.950628,1765500280950632583,-3.22813238059546e-06,2.5961775058875777e-08,-2.9905301070107205e-10,0.9999999999947892,0.0007904181511531912,0.0011002627849465633,0.001644445784285258,-0.03957310697729105,-0.020097646099409967,9.87316754110086
15.91,1765500280.9555802,1765500280955587460,-3.228132380877838e-06,2.596177649215764e-08,-2.9905301072140084e-10,0.9999999999947892,0.0009395243494182319,-8.750062090240519e-05,0.0016775371430445985,0.09283912970976381,-0.04154604439024781,9.72978535148906
15.915,1765500280.9607913,1765500280960794827,-3.228132381159948e-06,2.5961774853244235e-08,-2.990530107281771e-10,0.9999999999947892,-0.005443974802994489,0.0004430347479966219,0.0035131212211404663,-0.05628364235514857,-0.017319147029036072,9.804611603220835
15.92,1765500280.9661384,1765500280966142814,-3.228132381442252e-06,2.596177321409365e-08,-2.990530107688347e-10,0.9999999999947892,0.0006985984520326845,0.002607012237543363,-0.0001463795058125373,-0.04112377306084305,0.024340042721120128,9.813878060938706
15.925,1765500280.971244,1765500280971248320,-3.2281323817246436e-06,2.596177464740262e-08,-2.990530107891635e-10,0.9999999999947892,-0.0016973173906689731,0.0016552428981126946,0.0020388097191630745,0.03187677742960213,-0.04725111232493265,9.801936751180342
15.93,1765500280.9762838,1765500280976287342,-3.228132378934524e-06,2.596177608074551e-08,-2.990530105045604e-10,0.9999999999947892,-0.0016704864679432567,-0.002640522314935342,0.0022654980022977695,-0.042910923887730615,0.07086486460745997,9.71592809361267
15.935,1765500280.9811316,1765500280981135487,-3.2281323792167395e-06,2.5961774441676243e-08,-2.990530105248892e-10,0.9999999999947892,0.0024509647768225784,0.0022462117421759692,-0.004019659752691568,-0.07194466951645918,0.05773593486751392,9.776374372917939
15.94,1765500280.98629,1765500280986294287,-3.2281323794990996e-06,2.5961775874951334e-08,-2.99053010545218e-10,0.9999999999947892,-0.0013257306052122987,0.002323159076549355,0.0012622976138893017,-0.014866797457059077,0.005255474869804652,9.760122367222388
15.945,1765500280.9912803,1765500280991284104,-3.22813238285387e-06,2.5961774235970123e-08,-2.990530108569261e-10,0.9999999999947892,0.0001110627546089117,-0.0008999890379182487,0.0011744706526824497,-0.040031940095237986,-0.027669075667537152,9.817698654648014
15.95,1765500280.9963462,1765500280996349746,-3.2281323831361643e-06,2.596177259677888e-08,-2.9905301088403117e-10,0.9999999999947892,0.000897447327926356,-0.0014142334867115983,-0.0032578591708462357,0.0821582308660555,0.057356652961197026,9.795148743870675
15.955,1765500281.0015426,1765500281001546657,-3.22813238034604e-06,2.596177710255422e-08,-2.990530106129806e-10,0.9999999999947892,-0.0014382996794570222,0.001765470437656969,-0.005493015828823106,-0.038803519055828566,-0.02108818382042902,9.794424136885603
15.96,1765500281.0066547,1765500281006659361,-3.2281323806281404e-06,2.5961775463613712e-08,-2.9905301060620436e-10,0.9999999999947892,-0.0005093903188878737,8.475005263903193e-05,-0.0023119890003138544,0.040800984670056904,0.02359010829194156,9.871089564687967
15.965,1765500281.011737,1765500281011740563,-3.228132380910461e-06,2.5961773824415693e-08,-2.990530106197569e-10,0.9999999999947892,0.0008415839183317164,-0.0006342724657793087,-0.00011697794360442649,0.008906049510431072,-0.015059276306425633,9.77992591403208
15.97,1765500281.0168884,1765500281016900298,-3.2281323811929263e-06,2.5961775257623015e-08,-2.9905301062653315e-10,0.9999999999947892,0.002595614062245956,-0.00281270534945445,-0.0012149218806311525,-0.0199924991335923,-0.08463836264431776,9.832826458928224
15.975,1765500281.0220473,1765500281022051671,-3.228132378402699e-06,2.5961776691054e-08,-2.990530103419301e-10,0.9999999999947892,-0.0003600048460851686,-0.0018150256398001751,0.0030343802165333487,-0.034178914494458416,-0.06598741785327837,9.748865086877228
15.98,1765500281.0269961,1765500281027001714,-3.2281323786848524e-06,2.596177505199829e-08,-2.9905301036903514e-10,0.9999999999947892,-0.0015288565232944907,0.0024804656977141207,0.0014096700700929553,-0.014259428187135133,-0.03887548625871481,9.798635835631877
15.985,1765500281.0323613,1765500281032369949,-3.228132382039671e-06,2.5961773412895102e-08,-2.990530106875195e-10,0.9999999999947892,-0.0025208142837121507,0.0012820689217684215,0.0004458040862963502,0.03241035970594105,0.034153775957857464,9.829977757191749
15.99,1765500281.0373974,1765500281037402458,-3.2281323823219513e-06,2.5961774846305722e-08,-2.990530106942958e-10,0.9999999999947892,0.0020685813985801484,-0.001961814766298575,-0.0001241199866872235,0.024651462369447888,-0.03683019935500629,9.797602750294429
15.995000000000001,1765500281.0420735,1765500281042078393,-3.2281323826042695e-06,2.596177320716869e-08,-2.990530107281771e-10,0.9999999999947892,-0.002845604470916663,-0.0035175441106451194,-0.0014239057954540002,0.01241164191923213,-0.03345658409829146,9.781149612913337
16.0,1765500281.0471473,1765500281047155146,-3.228132379814066e-06,2.5961774640450593e-08,-2.990530104503503e-10,0.9999999999947892,0.002172145036810149,-0.0007576019751813454,0.005126507144819308,-0.0257480102990078,0.016886652610346584,9.883466420283748
16.005,1765500281.0527394,1765500281052745336,-3.2281323800963125e-06,2.5961776073874765e-08,-2.9905301046390283e-10,0.9999999999947892,-0.0035598158593365854,-0.00455410532384621,-0.0009746401380554049,0.008196067016856497,-0.035071001122033006,9.789778864187696
16.01,1765500281.0576952,1765500281057705481,-3.2281323803786735e-06,2.5961774434730957e-08,-2.990530104706791e-10,0.9999999999947892,-0.005400484792145736,0.0021505115800058375,-0.0005160058099957481,-0.029673129991083624,-0.01963084629297876,9.832370228071714
16.015,1765500281.0628095,1765500281062813659,-3.2281323806609993e-06,2.5961772795560043e-08,-2.990530104910079e-10,0.9999999999947892,-0.0003807421198030565,0.003947624573563762,-0.0007823756548905136,-0.015756474175609558,0.03542471669981032,9.818453406563176
16.02,1765500281.0679471,1765500281067959010,-3.228132377870923e-06,2.5961777301348934e-08,-2.9905301021995734e-10,0.9999999999947892,0.00121332690693022,0.0052736565933432945,-0.0004673951003515906,-0.0749748308720897,-0.01693067430390389,9.768268791068357
16.025,1765500281.0730796,1765500281073084101,-3.2281323812255557e-06,2.5961775662516804e-08,-2.9905301053166546e-10,0.9999999999947892,-0.002678085668768273,-0.0026714860853348826,-0.0006891172571858492,-0.0040105911391538,-0.01700251750933499,9.903099363284124
16.03,1765500281.0781198,1765500281078123927,-3.2281323815078688e-06,2.596177402333234e-08,-2.990530105655468e-10,0.9999999999947892,0.001326049960228278,0.0015476439689266204,0.005371639802378727,-0.004095717372060413,-0.02945926629093356,9.828630208946095
16.035,1765500281.0833282,1765500281083333022,-3.2281323817902492e-06,2.596177545665486e-08,-2.990530105655468e-10,0.9999999999947892,0.0017689113654583207,-0.0047403472564662204,-0.00029109297760199383,0.0391475789241026,0.02935831750339069,9.787088766169411
16.04,1765500281.0885541,1765500281088558656,-3.2281323820724556e-06,2.5961773817585597e-08,-2.990530105790993e-10,0.9999999999947892,-0.0011789234451776204,0.0027953576251223498,0.0005388912293499198,-0.05967042690687814,-0.05399343064963552,9.856544900935452
16.045,1765500281.0932534,1765500281093257195,-3.2281323792822562e-06,2.5961775250881056e-08,-2.990530103012725e-10,0.9999999999947892,-0.00144096112263763,0.001409333525547757,-0.0011898758267356977,0.03980337731984844,-0.015056761416195039,9.808813828491317
16.05,1765500281.0981824,1765500281098185438,-3.2281323795646325e-06,2.5961776684244235e-08,-2.9905301031482503e-10,0.9999999999947892,-0.004538119801477961,-0.0052317352610408005,0.0024961200044140036,0.03941217919406024,-0.06815650410198656,9.764001616005784
16.055,1765500281.103543,1765500281103548738,-3.2281323798468583e-06,2.596177504517497e-08,-2.9905301032837756e-10,0.9999999999947892,-0.0053311042081865675,-0.0013016171997739796,-0.001448316236658647,-0.0423463939879103,-0.06307679479113645,9.802255532142983
16.06,1765500281.1085248,1765500281108529611,-3.228132380129115e-06,2.596177340594985e-08,-2.990530103419301e-10,0.9999999999947892,-0.001946089604142363,-0.001802941003292468,0.0016554147780087466,0.01695061174258384,0.05775189788588328,9.793586279831922
16.065,1765500281.113326,1765500281113330611,-3.2281323834840415e-06,2.596177483929944e-08,-2.990530106536382e-10,0.9999999999947892,-0.004716642983015227,-0.0017446367443334418,-0.0009342256060404662,-0.02068334812665089,0.010211628852049678,9.785227265197912
16.07,1765500281.1186569,1765500281118661676,-3.2281323806937947e-06,2.5961776272743976e-08,-2.9905301038258766e-10,0.9999999999947892,-0.0022102750192279437,-0.001107345722350485,-0.0009156747330712752,0.03465915691337758,0.055236903792571866,9.781619207381222
16.075,1765500281.1234293,1765500281123432816,-3.2281323809760003e-06,2.5961774633715368e-08,-2.9905301040291645e-10,0.9999999999947892,0.0028113912533484,0.005118173366849611,0.0018005432805854717,0.003678518389001635,-0.03959681149895352,9.808546509131894
16.08,1765500281.1284895,1765500281128493466,-3.2281323812583663e-06,2.5961776066997235e-08,-2.990530104300215e-10,0.9999999999947892,-0.0006920177963281943,-0.001889589946526764,0.001199384600080035,-0.0018717906257523648,0.04010160493718703,9.788434630005355
16.085,1765500281.1336994,1765500281133704353,-3.2281323815406214e-06,2.5961774427894087e-08,-2.9905301044357404e-10,0.9999999999947892,0.0038341860358564457,-0.002684287017453452,-0.0007681133368444762,0.0016947447019067577,0.003253541503106992,9.867356236156555
16.09,1765500281.1389105,1765500281138914684,-3.2281323787505305e-06,2.5961775861121778e-08,-2.9905301016574723e-10,0.9999999999947892,-0.0013284431706466183,-0.0027438227591025234,-0.0016920385844359325,-0.009321873662748425,-0.02324384609317135,9.82086282066239
16.095,1765500281.1438222,1765500281143826933,-3.22813237903272e-06,2.59617742221135e-08,-2.9905301017929976e-10,0.9999999999947892,-0.0014780619344155026,-0.0010167038870978011,-0.0011483418077728616,0.03210741899614799,0.10315685504675436,9.78423650878015
16.1,1765500281.1490283,1765500281149034200,-3.2281323793150546e-06,2.5961775655544446e-08,-2.990530102064048e-10,0.9999999999947892,-0.00040247641861963296,0.0003047889726708228,-0.0017556589536570763,0.012161305812196963,-0.0756049054213413,9.759894179226613
16.105,1765500281.1544323,1765500281154438296,-3.228132382669833e-06,2.596177401638705e-08,-2.990530105248892e-10,0.9999999999947892,0.0024125104182768716,0.0014148708760581307,-0.001667412410326474,-0.04409814898501552,0.01975015993476999,9.75598277031273
16.11,1765500281.1593256,1765500281159329959,-3.2281323829520794e-06,2.5961772377189034e-08,-2.99053010545218e-10,0.9999999999947892,0.0010924423062932198,-0.0004341944070918676,0.0025314162488800267,-0.01915660306569037,-0.011826599474036975,9.847553380079981
16.115,1765500281.1642811,1765500281164285000,-3.2281323801619457e-06,2.5961776882950823e-08,-2.9905301028771997e-10,0.9999999999947892,-0.0016215073741669792,0.0004891304575714132,0.001205370585601872,-0.05620781923755043,0.061591286893616,9.758374043527295
16.12,1765500281.1695173,1765500281169522968,-3.228132380444051e-06,2.5961775244023865e-08,-2.9905301028771997e-10,0.9999999999947892,-0.0020225368729539714,-0.0011109716269417358,-0.001989067416950586,-0.021124469227542613,-0.054789041727311326,9.777942098855736
16.125,1765500281.1745775,1765500281174583386,-3.2281323807264076e-06,2.5961773604859724e-08,-2.9905301031482503e-10,0.9999999999947892,0.005364622561776277,-0.00032046265615176496,-1.5841231835589012e-05,0.09823772444008445,-0.08739008957376153,9.840989810787256
16.13,1765500281.1794016,1765500281179405351,-3.228132381008905e-06,2.5961775038121256e-08,-2.9905301032837756e-10,0.9999999999947892,0.0013656530622354007,0.0008538915693743928,-0.0007305261493467121,0.0018522604260375482,-0.017515167648226675,9.793058520077809
16.135,1765500281.1847556,1765500281184762215,-3.228132378218621e-06,2.596177647152514e-08,-2.9905301005055075e-10,0.9999999999947892,-0.002432000044032378,0.00237286573934323,-0.0014511168307483934,0.0033749892480354105,0.06492439105981442,9.775228988059567
16.14,1765500281.1896296,1765500281189633341,-3.2281323815734435e-06,2.59617748324084e-08,-2.990530103554826e-10,0.9999999999947892,-0.0009114570037001406,-0.0005451180352371642,0.00021877895685220238,-0.04295376854031034,0.03363140553099198,9.769326260392543
16.145,1765500281.194569,1765500281194576065,-3.2281323818557435e-06,2.5961776265873225e-08,-2.9905301038258766e-10,0.9999999999947892,0.0018164486610453719,-0.003754108563183206,0.000679559753572097,-0.022958833317210717,-0.02759442595059335,9.787729370872427
16.15,1765500281.1998494,1765500281199854706,-3.2281323821379452e-06,2.5961774626831068e-08,-2.9905301038258766e-10,0.9999999999947892,-0.004066717540449539,0.000626831346092004,0.0002292423718729945,0.04676654467163856,-0.021057095650861404,9.808004214084438
16.155,1765500281.2047558,1765500281204761237,-3.228132382420254e-06,2.5961772987639825e-08,-2.990530103961402e-10,0.9999999999947892,-0.0012359133474559988,0.0004695297439567714,0.005149076676552505,-0.019211893856975616,0.05989127727605104,9.76749988039063
16.16,1765500281.2099671,1765500281209971031,-3.2281323796301157e-06,2.596177749337451e-08,-2.990530101318659e-10,0.9999999999947892,0.0008127595792037458,0.0024064106452222605,-0.0003579228240055442,-0.004444310317149366,0.017176080569536744,9.83777545668618
16.165,1765500281.2150302,1765500281215035063,-3.2281323799121955e-06,2.5961775854440775e-08,-2.990530101521947e-10,0.9999999999947892,-0.004192100530035558,0.0035958034471654846,-0.006089860450799743,0.031205532165897266,-0.011061430011567624,9.799339731855607
16.17,1765500281.2202058,1765500281220209711,-3.228132380194591e-06,2.5961774215188543e-08,-2.9905301015897097e-10,0.9999999999947892,0.0031701998482886076,-0.0017853863867014453,-0.002655055714987466,0.011471717300660952,0.013208728949458827,9.81526371140215
16.175,1765500281.2251098,1765500281225114107,-3.228132380476911e-06,2.5961772576004078e-08,-2.990530101928523e-10,0.9999999999947892,0.0007013529096029153,-0.0006468879275278054,-0.0007333650917189254,0.021896200040106048,0.05652681861924745,9.79714946279267
16.18,1765500281.2301297,1765500281230132919,-3.228132380759223e-06,2.59617740094418e-08,-2.990530102064048e-10,0.9999999999947892,0.002320976515384145,0.0025784328170486313,0.003970250248897043,0.015578482784301517,0.049981296581163404,9.810112913851446
16.185,1765500281.2354517,1765500281235455998,-3.2281323810415517e-06,2.5961775442811757e-08,-2.9905301023350987e-10,0.9999999999947892,0.0021051160348697956,-0.00362460870588132,0.004554632799933962,0.008586821923921087,-0.04724631852067577,9.831743480980917
16.19,1765500281.240491,1765500281240495160,-3.228132381323757e-06,2.59617738037696e-08,-2.9905301025383866e-10,0.9999999999947892,0.0016883588269760892,0.002575185864815067,0.0006596894998427945,-0.04970269811344337,0.037446000687562424,9.730661458148667
16.195,1765500281.2453828,1765500281245386811,-3.228132381606134e-06,2.5961775237031135e-08,-2.9905301027416745e-10,0.9999999999947892,-0.000796089839940267,-0.0028275603083211657,0.0009726702119243098,-0.021772508504338324,0.05522383472977806,9.787741335645498
16.2,1765500281.2506135,1765500281250617500,-3.228132381888367e-06,2.5961773597982197e-08,-2.9905301028771997e-10,0.9999999999947892,-0.0011316156131565996,-0.002667392500745388,-0.002832301383589438,0.01333894875139581,-0.008571023981817227,9.82300183086874
16.205,1765500281.2555943,1765500281255599104,-3.2281323790981994e-06,2.5961775031311538e-08,-2.9905301001666943e-10,0.9999999999947892,-0.002456637373624742,0.002319832356641524,0.0032496890208978738,0.0009486935369235464,-0.029314116392785392,9.838848752756018
16.21,1765500281.260878,1765500281260882905,-3.228132379380684e-06,2.5961776464552738e-08,-2.9905301003022196e-10,0.9999999999947892,0.0003675719446558947,-0.001569310132313742,0.0008625711053864571,-0.0019543175008358165,-0.055952742619198796,9.777179559196146
16.215,1765500281.2661567,1765500281266164043,-3.228132379662762e-06,2.5961774825585125e-08,-2.990530100369982e-10,0.9999999999947892,0.0010092675324298863,-0.0004039130046178591,-0.0011200384444998406,-0.07115003933565887,-0.04378693391715306,9.768039887837233
16.22,1765500281.2710626,1765500281271067530,-3.228132379945076e-06,2.5961773186420988e-08,-2.9905301005055075e-10,0.9999999999947892,0.0026381189527849803,0.0014237038842090657,-0.0006138030391366206,0.020575353618769113,0.04325849926583839,9.710668749880801
16.225,1765500281.27608,1765500281276083950,-3.2281323832999864e-06,2.596177461978413e-08,-2.9905301036903514e-10,0.9999999999947892,-0.0025148245359948593,-0.0004245255717794982,-0.002145617925020392,-0.02976617276708511,-0.07618644753256719,9.72182393578441
16.23,1765500281.281083,1765500281281086766,-3.2281323805097167e-06,2.5961776053174458e-08,-2.9905301008443207e-10,0.9999999999947892,-0.004893472079847206,-3.886697163375359e-05,-0.0011636061953933833,0.01633777551108724,-0.008672689621117545,9.865973952246279
16.235,1765500281.287301,1765500281287313393,-3.2281323807919044e-06,2.59617744141323e-08,-2.990530101115371e-10,0.9999999999947892,0.003629025782964448,-0.002707594982049945,-0.0028808745021949864,-0.09854571293267891,0.009920001883333121,9.821256590234036
16.24,1765500281.291446,1765500281291454054,-3.2281323810743006e-06,2.5961775847448045e-08,-2.990530101318659e-10,0.9999999999947892,-0.0033993102851122203,-0.0009573662553330639,0.0014432029806769637,-0.061823589159869616,0.027555388229073472,9.790307716216338
16.245,1765500281.2964437,1765500281296452145,-3.2281323813565358e-06,2.5961774208399108e-08,-2.990530101521947e-10,0.9999999999947892,0.0019296870122428023,0.0017281547914751022,-0.000263641091362889,-0.03398568273331857,0.06627020416029024,9.810580077891906
16.25,1765500281.3015728,1765500281301579962,-3.2281323816389408e-06,2.596177256911977e-08,-2.9905301017929976e-10,0.9999999999947892,0.0012260437805871834,0.00420060153835524,-0.002989027360970213,-0.040976050058290074,0.025420205184126354,9.787206898620362
16.255,1765500281.3062627,1765500281306266944,-3.22813237884879e-06,2.5961777074854455e-08,-2.9905300990147295e-10,0.9999999999947892,0.0005771511964045285,0.003389099088216116,0.004278855280797428,0.02733113703714324,0.00021263402202637385,9.828695119086781
16.26,1765500281.311443,1765500281311447006,-3.2281323791308512e-06,2.5961775435934277e-08,-2.990530099150255e-10,0.9999999999947892,0.000206905094562811,0.0004591707490239133,-0.0013737632795683883,0.01816071102920872,0.033323542456226776,9.770248090359305
16.265,1765500281.3165748,1765500281316583488,-3.228132382485665e-06,2.5961773796803984e-08,-2.990530102267336e-10,0.9999999999947892,-0.0012286700766506052,0.0005212606328992165,0.0008871624404451074,-0.02017391403093299,0.05008272641886862,9.808726872118289
16.27,1765500281.3216963,1765500281321701379,-3.228132382768031e-06,2.5961775230092624e-08,-2.9905301023350987e-10,0.9999999999947892,-0.0019437676604456497,-0.002316323479957029,-0.004188701547957137,-0.044423386878708365,-0.00893290973848161,9.805358285816519
16.275,1765500281.3267517,1765500281326755410,-3.228132379977752e-06,2.5961776663482955e-08,-2.9905300994213053e-10,0.9999999999947892,-0.0030447897264846294,-0.00011687558151512271,0.0018606228995765104,-0.04294938972397839,0.013808907618165783,9.81543654232868
16.28,1765500281.332102,1765500281332107721,-3.2281323802599377e-06,2.5961775024427245e-08,-2.990530099692356e-10,0.9999999999947892,0.004059313451034835,-0.0014987874262158253,0.0003953123586959222,-0.023603572140173334,0.04521406858859465,9.75180518065085
16.285,1765500281.3369155,1765500281336919638,-3.2281323805422237e-06,2.596177338522245e-08,-2.9905300999634064e-10,0.9999999999947892,0.007029939551592099,0.0009367568552295927,0.003525944810135603,0.03178029402781275,0.00034221615849475357,9.751850790848318
16.29,1765500281.3422904,1765500281342298803,-3.2281323808246312e-06,2.59617748185653e-08,-2.990530099895644e-10,0.9999999999947892,-0.001180183281740372,-0.0006329251076025469,-0.001418584787161033,-0.01851306031076217,-0.016324111460760533,9.79155831251138
16.295,1765500281.3473086,1765500281347316468,-3.2281323811069452e-06,2.5961773179401163e-08,-2.9905301001666943e-10,0.9999999999947892,0.0032387684080698747,0.005367504018771619,0.00017374668538539139,0.023047305313415152,-0.0820553036409151,9.795208742315998
16.3,1765500281.3522892,1765500281352300534,-3.2281323783167323e-06,2.596177461268307e-08,-2.990530097388426e-10,0.9999999999947892,-0.00484475672320382,0.0027164263225547733,-0.00483920555266885,-0.07474799695262437,-0.05743761094329123,9.759503830500785
16.305,1765500281.3572063,1765500281357219144,-3.228132381671524e-06,2.5961776046215622e-08,-2.9905301007087954e-10,0.9999999999947892,-0.0018924332306777493,0.0004040990100648447,0.0022859984328643095,0.03187849073626356,-0.0007568335696449442,9.838871018911618
16.31,1765500281.3622475,1765500281362258814,-3.2281323819537325e-06,2.596177440712603e-08,-2.990530100979846e-10,0.9999999999947892,0.002799072903722107,-0.004084190240665379,-0.000644182494655696,0.03228076354352421,0.012333754674458484,9.68243781400775
16.315,1765500281.3674273,1765500281367432743,-3.2281323822360647e-06,2.596177276794834e-08,-2.990530101183134e-10,0.9999999999947892,-0.0008967068035758026,0.0007302978857525308,0.0014166427184537842,-0.07892801795106041,-0.0567653846870727,9.819231681357474
16.32,1765500281.3725352,1765500281372543452,-3.228132379445931e-06,2.5961777273716903e-08,-2.990530098404866e-10,0.9999999999947892,-0.003265317254022569,-0.0010862238912867253,0.0006124111888510659,-0.04982410172791813,-0.03075496324404595,9.799721029752845
16.325,1765500281.3772416,1765500281377253375,-3.228132379728059e-06,2.5961775634803498e-08,-2.9905300984726284e-10,0.9999999999947892,-0.002900883372756682,-0.002826696534126739,0.0008305205186044177,0.06889800816101582,-0.0026825164939009304,9.891367684722182
16.33,1765500281.3822315,1765500281382243787,-3.228132380010482e-06,2.596177399554449e-08,-2.9905300984726284e-10,0.9999999999947892,-0.0017373844674717605,-0.0031590710088366413,0.002849498309794675,0.02494726115327881,0.0890904533520685,9.83757684474462
16.335,1765500281.387537,1765500281387542050,-3.2281323802928767e-06,2.5961775428880563e-08,-2.990530098879204e-10,0.9999999999947892,-0.004035322890813584,0.0031563266633016433,-0.0006149135604453153,-0.004660594004772266,-0.03498715872718568,9.719631604259012
16.34,1765500281.392684,1765500281392688485,-3.228132380575135e-06,2.596177378984518e-08,-2.990530099150255e-10,0.9999999999947892,-0.0025752697308236913,-0.0026538873997496307,0.0024401992223148576,-0.06416861136817759,0.013706896890592079,9.845047153298172
16.345,1765500281.3977487,1765500281397752892,-3.2281323808574483e-06,2.5961775223188032e-08,-2.99053009928578e-10,0.9999999999947892,-0.0009201684372631927,-0.0012770885109622133,0.0003277419537266921,0.053631966648904246,-0.038997526797440764,9.806664701123502
16.35,1765500281.4030783,1765500281403082849,-3.228132381139673e-06,2.5961776656612204e-08,-2.9905300994213053e-10,0.9999999999947892,0.0019223194610049315,0.003907864849623615,0.0010574180896975119,0.01960365857631057,-0.0037154928107974543,9.79999273715218
16.355,1765500281.4078422,1765500281407847455,-3.228132381421859e-06,2.5961775017556494e-08,-2.990530099489068e-10,0.9999999999947892,0.004180460391499801,0.0049161755374425055,-0.0028558058840652384,0.03135183056948404,0.029179711644342365,9.823771042220185
16.36,1765500281.413089,1765500281413098953,-3.2281323817041814e-06,2.596177337840591e-08,-2.990530099692356e-10,0.9999999999947892,0.00023701072149776177,0.0021079416692378256,-0.0007419437874825181,-0.02320601300151936,-0.0048885026668154625,9.792513504558991
16.365,1765500281.4185443,1765500281418549152,-3.2281323819865538e-06,2.5961774811667448e-08,-2.9905300999634064e-10,0.9999999999947892,-0.0033479390349858795,-0.0022474789459853628,0.0005875503186936362,-0.037107190478760294,-0.0458516237293743,9.801020073337748
16.37,1765500281.4233735,1765500281423378070,-3.2281323791964306e-06,2.5961776245010334e-08,-2.9905300969818504e-10,0.9999999999947892,0.003477323363077856,0.001766227398898296,0.001565405252179941,-0.014678293895325989,0.03869041791445911,9.823431517890231
16.375,1765500281.428234,1765500281428244858,-3.2281323794786146e-06,2.596177460599528e-08,-2.990530097252901e-10,0.9999999999947892,-0.0014587121858855836,0.0016433670852700531,-0.0039574696799137285,-0.05540431878332075,0.003371361995294625,9.836342245934075
16.38,1765500281.4336488,1765500281433653671,-3.228132379761024e-06,2.5961776039277145e-08,-2.990530097388426e-10,0.9999999999947892,-0.004621694697935475,-0.00025011190182366096,0.0029397070261681815,0.020758818635445136,0.02767791853174085,9.785394463517063
16.385,1765500281.4386017,1765500281438606556,-3.228132383115799e-06,2.5961774400302707e-08,-2.990530100437745e-10,0.9999999999947892,-0.0032489441138178034,0.0019535099987539523,-0.0002873291494510045,0.02674528266942927,-0.027382605423877642,9.824045271560626
16.39,1765500281.4434903,1765500281443499189,-3.2281323803256234e-06,2.5961775833571058e-08,-2.990530097795002e-10,0.9999999999947892,0.000701534418192517,-0.0026008541122335056,0.0009984218207672625,0.01779821928478338,0.021792177545614945,9.787945204346675
16.395,1765500281.4487352,1765500281448740124,-3.2281323806078133e-06,2.59617741945289e-08,-2.9905300980660526e-10,0.9999999999947892,-0.0004318859229935717,0.002278679526621338,-0.002675212918667332,-0.08387260050954949,-0.001675821430419191,9.859603680343858
16.4,1765500281.454128,1765500281454133585,-3.228132380890164e-06,2.596177562782432e-08,-2.990530098201578e-10,0.9999999999947892,-0.0015380640177418067,0.0012193053045261768,-0.00047818158578561234,0.016749508132415672,-0.01567599112272099,9.832307095369728
16.405,1765500281.4593716,1765500281459376905,-3.228132381172396e-06,2.5961773988768606e-08,-2.990530098337103e-10,0.9999999999947892,-0.00021326690238129535,0.004391916601270084,0.0011919208374469486,0.014740543150395564,-0.04986680939188744,9.728380117178581
16.41,1765500281.4639835,1765500281463991074,-3.2281323814547873e-06,2.596177234948927e-08,-2.990530098404866e-10,0.9999999999947892,-0.0028634585773076623,0.0007549072340066503,0.0019324330376408333,0.034812131942423295,0.019660621161131587,9.754297795345781
16.415,1765500281.4693677,1765500281469373036,-3.228132378664697e-06,2.596177685525783e-08,-2.9905300958298856e-10,0.9999999999947892,0.005906956969629359,-0.0031258969968353378,0.0025235753063013924,0.01754763925871274,0.028656706193416714,9.807541103582416
16.42,1765500281.4741294,1765500281474139494,-3.2281323789467507e-06,2.596177521626989e-08,-2.9905300958298856e-10,0.9999999999947892,-0.002206730433258006,-0.0037697705872109634,0.0009608394252366761,0.02370716350639771,-0.020222830935619395,9.779648292032402
16.425,1765500281.4795518,1765500281479560793,-3.2281323823015768e-06,2.5961773577139598e-08,-2.9905300990147295e-10,0.9999999999947892,-0.0021517445617490684,0.0006951850929638322,-0.001325499164098995,-0.020449683137310395,0.056116645074497463,9.775863997879025
16.43,1765500281.484654,1765500281484662113,-3.2281323825839572e-06,2.596177501044179e-08,-2.9905300992180174e-10,0.9999999999947892,-0.0029182668630213853,-0.000588481947371916,0.00335373107888084,-0.08918860975695027,0.07358365594976568,9.786994014836047
16.435,1765500281.4896278,1765500281489635845,-3.2281323797936825e-06,2.596177644387278e-08,-2.9905300964397493e-10,0.9999999999947892,0.0025293308046047485,-0.001240278117000775,-0.0012707579257644353,0.0093879741008219,-0.039404153872739774,9.766075869178803
16.44,1765500281.4943419,1765500281494354539,-3.228132380075886e-06,2.5961774804830618e-08,-2.9905300967108e-10,0.9999999999947892,0.002844838857970946,0.0022550506038531985,0.000777747224385286,-0.011593079917585703,-0.07249102409345679,9.782366435767436
16.445,1765500281.5002482,1765500281500259201,-3.228132380358269e-06,2.596177623811926e-08,-2.9905300971173757e-10,0.9999999999947892,0.0005215127825834955,0.004938422449460569,0.00014308194712118102,0.02672566875149267,0.02792228511052845,9.841969234514927
16.45,1765500281.5048106,1765500281504816294,-3.228132380640634e-06,2.596177459897545e-08,-2.9905300969818504e-10,0.9999999999947892,0.0011082954489016006,0.0011486925621525309,-0.002247659086029247,0.0760824698130012,0.041931276667826145,9.79884374028243
16.455,1765500281.5099604,1765500281509964445,-3.228132380922942e-06,2.596177295977743e-08,-2.990530097252901e-10,0.9999999999947892,-0.0012299548786177904,-0.0013386688850116487,0.0009388810517931769,-0.028992133235110865,-0.03200108199882571,9.70818260896082
16.46,1765500281.515068,1765500281515072818,-3.2281323781328656e-06,2.596177746555277e-08,-2.9905300945423955e-10,0.9999999999947892,0.002769260464287935,-0.00012874200940009555,0.0007381578112110803,0.02913593527752931,0.03204943949593932,9.847655476801819
16.465,1765500281.5201614,1765500281520166770,-3.22813238148747e-06,2.5961775826693538e-08,-2.990530097659477e-10,0.9999999999947892,-0.0017585206666316697,-0.002888143684811886,0.0015491067665217863,-0.021748736552814542,0.05384988797883932,9.770251846910718
16.47,1765500281.5252244,1765500281525228106,-3.2281323817697718e-06,2.5961774187515848e-08,-2.990530097795002e-10,0.9999999999947892,0.0009844699801391569,-0.0006002513849708367,0.0006356695311158731,-0.008554515266599443,0.022432776299300232,9.797318378763855
16.475,1765500281.5301545,1765500281530158452,-3.2281323820520934e-06,2.5961772548304277e-08,-2.9905300979305273e-10,0.9999999999947892,-0.006121592815776699,0.001165216909995676,-0.005421449222774909,-0.008539464523736839,0.014145005412285715,9.86334791120094
16.48,1765500281.5353115,1765500281535315218,-3.2281323823344078e-06,2.5961773981721673e-08,-2.99053009799829e-10,0.9999999999947892,-0.003055611736695733,-0.0015044517337063842,0.003250344271963286,-0.0407586060255731,0.09453577032174754,9.820618002309512
16.485,1765500281.54023,1765500281540233575,-3.228132379544204e-06,2.5961775415044234e-08,-2.9905300952877845e-10,0.9999999999947892,0.005332724741734138,-0.0027488111121997463,-0.001347542277367509,0.017801517114261377,0.03759927459683259,9.8163205423113
16.49,1765500281.5452206,1765500281545224553,-3.228132379826526e-06,2.5961773775941083e-08,-2.9905300956265977e-10,0.9999999999947892,-0.002105470306388748,0.00010715509487600928,1.5842048885219815e-05,-0.024449808887986396,0.07405737479828893,9.776005210313798
16.495,1765500281.5504408,1765500281550447891,-3.2281323801089083e-06,2.5961775209250052e-08,-2.9905300958298856e-10,0.9999999999947892,0.00016954254632624947,0.001819829691882717,-0.0014714032481815153,0.025099832355194057,-0.004945429894821319,9.839066605051922
16.5,1765500281.5555832,1765500281555587585,-3.2281323803911236e-06,2.5961773570167237e-08,-2.990530095897648e-10,0.9999999999947892,-0.0015760263494373694,-0.003577852519497361,0.0013199149118676005,-0.006536602292222853,-0.02232262882421303,9.784034928591462
16.505,1765500281.5604117,1765500281560416255,-3.2281323806734697e-06,2.5961775003550748e-08,-2.990530096168699e-10,0.9999999999947892,0.0007672080829605135,-0.005754406819642936,-0.003413434596393208,-0.02081425863491941,0.009262466483092225,9.761468011520977
16.51,1765500281.565516,1765500281565520716,-3.2281323809557198e-06,2.596177643697492e-08,-2.990530096168699e-10,0.9999999999947892,-0.0007362502402264526,-0.004465492735312019,-0.003304959502621653,0.04861883599579228,-0.024326034291647394,9.829883535899006
16.515,1765500281.570597,1765500281570601326,-3.2281323812379422e-06,2.5961774797919206e-08,-2.990530096304224e-10,0.9999999999947892,0.003438776808662724,0.002904194087430238,-0.003649745135355952,0.06948506935200774,-0.0018023754662144836,9.715817707184485
16.52,1765500281.5756898,1765500281575694289,-3.2281323815202456e-06,2.596177315873474e-08,-2.9905300965752746e-10,0.9999999999947892,0.00013416344805260071,-0.0021299165448322548,-0.0011990740926897162,-0.05544067946524077,-0.013874796714766375,9.807432926531371
16.525,1765500281.5807288,1765500281580733249,-3.228132381802611e-06,2.5961774591989502e-08,-2.9905300967108e-10,0.9999999999947892,-0.003808941827486149,0.00041946634620914307,0.0018187141558210522,0.020175237560497047,-0.040334928565566044,9.766413487495424
16.53,1765500281.586025,1765500281586031268,-3.2281323790124335e-06,2.5961776025312063e-08,-2.9905300937970065e-10,0.9999999999947892,-0.0010850596552918637,0.0019688822467175656,-0.001423995697273974,0.013930861127323826,-0.032414634021074334,9.859870838819093
16.535,1765500281.59091,1765500281590914573,-3.228132379294625e-06,2.5961774386229248e-08,-2.9905300937970065e-10,0.9999999999947892,-0.0024409175838745,-0.003174740368891401,-0.0020290461737270055,0.030550469620628882,-0.03247135389141248,9.730384979455442
16.54,1765500281.5960398,1765500281596043833,-3.2281323795769792e-06,2.5961775819511112e-08,-2.9905300941358197e-10,0.9999999999947892,0.005007753350208737,0.0006540060284140493,0.00027393281722557904,0.08891139304296011,-0.024357277595120692,9.842855952331712
16.545,1765500281.6011245,1765500281601129465,-3.228132382931741e-06,2.596177418057056e-08,-2.990530097252901e-10,0.9999999999947892,-0.0006179797668291348,0.0006297679110149181,0.0012714202684529295,0.03285476379819912,-0.025070573425474137,9.737003233026828
16.55,1765500281.6062212,1765500281606225575,-3.2281323832140087e-06,2.596177254135899e-08,-2.990530097456189e-10,0.9999999999947892,-0.0008642473493467588,-0.005601422699811519,-0.00021320483832573076,-0.07003568143500145,0.023712543257783283,9.850552293030562
16.555,1765500281.611421,1765500281611428627,-3.2281323804239076e-06,2.5961777047127553e-08,-2.990530094610158e-10,0.9999999999947892,0.0038449531909612914,-0.0008867893240552474,-0.0030718882473959003,-0.014550209782333312,-0.028854252367068275,9.793606431356668
16.56,1765500281.616329,1765500281616338162,-3.2281323807059975e-06,2.5961775408187042e-08,-2.990530094610158e-10,0.9999999999947892,8.955494506111205e-05,-0.0022502747180687065,-0.000756973021172985,-0.027782537031704354,-0.05122570124020977,9.858025028012875
16.565,1765500281.6215007,1765500281621505324,-3.2281323809883072e-06,2.596177376902291e-08,-2.9905300948812087e-10,0.9999999999947892,0.004827987727793328,0.002953152104917405,0.0002909571299261612,-0.1017194169110589,0.03025023911330562,9.733154001280656
16.57,1765500281.6263955,1765500281626399107,-3.2281323812706877e-06,2.596177212973002e-08,-2.9905300948812087e-10,0.9999999999947892,0.0027210862783282517,-1.1434784130888273e-05,0.0005250235920330633,-0.016561468455061287,-0.062597964333835,9.788477825566643
16.575,1765500281.6314418,1765500281631446074,-3.228132378480503e-06,2.5961776635593452e-08,-2.990530091899653e-10,0.9999999999947892,-0.004369791006627048,0.0008614107276944108,0.001276482212466597,0.052374302875382084,0.01797807980549985,9.829758805998116
16.58,1765500281.6364877,1765500281636492537,-3.2281323818351386e-06,2.5961774996598695e-08,-2.990530095016734e-10,0.9999999999947892,0.0024546009726450053,-0.001603985077682564,-0.0017935648630817585,-0.006600957602862577,0.01900354467488934,9.859641431205768
16.585,1765500281.641507,1765500281641510755,-3.228132382117428e-06,2.5961773357421005e-08,-2.990530095355547e-10,0.9999999999947892,-0.004138096092289427,-0.001157436724496828,-0.00352957561430758,-0.037756082756223136,-0.05089309577570155,9.77549267658556
16.59,1765500281.646535,1765500281646540320,-3.2281323823997915e-06,2.59617747907232e-08,-2.9905300956943603e-10,0.9999999999947892,-0.0018372414514351868,-0.00573422755146169,-0.0006057472072100986,0.03979200857561626,0.02691928862747529,9.808171520858057
16.595,1765500281.651741,1765500281651750412,-3.2281323826820428e-06,2.5961773151667488e-08,-2.990530095897648e-10,0.9999999999947892,4.4226074396978954e-05,0.0013451049228942026,0.0016047876569799395,-0.01945991937964603,0.02153274142027461,9.807565921480792
16.6,1765500281.6570137,1765500281657017584,-3.2281323798918722e-06,2.5961774584929062e-08,-2.99053009311938e-10,0.9999999999947892,-0.002733986309365861,0.0006651665989405213,0.00013963368802623634,-0.02645056774257386,-0.02536522793059059,9.817619351302755
16.605,1765500281.6623578,1765500281662366460,-3.2281323801741205e-06,2.5961776018332906e-08,-2.990530093322668e-10,0.9999999999947892,0.0040823867550458465,0.0006144935634436241,0.0018768778509505274,0.044189081107810405,0.026186291358828346,9.810484671769519
16.61,1765500281.6673741,1765500281667382949,-3.228132380456439e-06,2.5961774379195874e-08,-2.9905300932549055e-10,0.9999999999947892,0.0014407886787555565,0.000955110734915477,-0.0008612003868586221,0.03386641382369716,0.03418932988815361,9.773569288831485
16.615,1765500281.672401,1765500281672408923,-3.2281323807387256e-06,2.5961772739997855e-08,-2.9905300933904307e-10,0.9999999999947892,0.0007475865019063686,-0.00039148845562993244,-0.0017513503475907412,0.0063276768263048205,-0.019762529083973558,9.769265482824384
16.62,1765500281.6774545,1765500281677462703,-3.22813238102116e-06,2.596177724584092e-08,-2.9905300936614813e-10,0.9999999999947892,-0.0001053545922560144,0.0027166794256790576,-0.00130949002138536,-0.04036823235858802,-0.030468221177079452,9.88256130612049
16.625,1765500281.6824236,1765500281682431843,-3.2281323813032777e-06,2.5961775606907185e-08,-2.9905300937970065e-10,0.9999999999947892,-0.0017376269921111967,0.0010124869323322244,-0.0034352566977901007,0.009648913540050857,-0.0367798296794433,9.833942749669324
16.63,1765500281.6875494,1765500281687557795,-3.228132381585608e-06,2.5961773967736272e-08,-2.990530094068057e-10,0.9999999999947892,-0.0001259643692097843,-0.004035634165608336,0.0028572674060651343,0.010796993089998767,0.006080104975442254,9.837217331890963
16.635,1765500281.6924386,1765500281692446273,-3.2281323818680433e-06,2.5961775401065566e-08,-2.990530094271345e-10,0.9999999999947892,0.0031912926303387297,-0.00268244451003062,0.0025701392595598293,-0.0050695888316841945,-0.119762681883749,9.756509221383036
16.64,1765500281.6974275,1765500281697434807,-3.2281323821502548e-06,2.5961773761989527e-08,-2.9905300943391076e-10,0.9999999999947892,0.0033584782190213707,0.0015625082504471728,0.0037476415203118096,0.047256652286442664,-0.0067017300085015245,9.849773349589002
16.645,1765500281.7024121,1765500281702427251,-3.2281323793601727e-06,2.5961775195217217e-08,-2.990530091493077e-10,0.9999999999947892,-0.003477753148282797,-0.0027657295816504992,-0.005670270760440534,0.05622424580483042,-0.10372220213875266,9.800770497659261
16.65,1765500281.7074802,1765500281707484325,-3.2281323796424193e-06,2.5961776628654942e-08,-2.990530091628602e-10,0.9999999999947892,-0.0033913602030817918,-0.001812955078697151,0.0036552398198380423,-0.04675611278608099,0.05472650062273266,9.786529758999908
16.655,1765500281.7124624,1765500281712466325,-3.2281323799246105e-06,2.596177498958568e-08,-2.99053009183189e-10,0.9999999999947892,0.0018703910087757571,0.0009807709213371383,0.0012603436439452644,0.031165143829699284,0.006412985725246094,9.806604569408362
16.66,1765500281.717598,1765500281717610358,-3.2281323832794124e-06,2.5961773350455387e-08,-2.9905300949489714e-10,0.9999999999947892,0.001201562415879658,0.004836472110140052,7.511597859938309e-05,0.018540570866735155,-0.014002726242348133,9.88910733862874
16.665,1765500281.7227554,1765500281722759828,-3.2281323804892257e-06,2.596177478373729e-08,-2.990530092238466e-10,0.9999999999947892,0.0010783863430949743,-0.0004324740640506476,-0.0008508497155696413,-0.018745578395445352,0.06562450302898154,9.753999141194232
16.67,1765500281.7277598,1765500281727770808,-3.228132380771413e-06,2.5961776217310544e-08,-2.990530092441754e-10,0.9999999999947892,-0.0002886542236517752,0.002476096822498109,0.00037042689379342483,-0.015945620047463402,0.054855637859298687,9.753355100080459
16.675,1765500281.7331347,1765500281733142777,-3.2281323810536897e-06,2.5961774578119305e-08,-2.9905300927128044e-10,0.9999999999947892,-0.0043262695492623255,-0.0015951705668703913,-0.0016292885202030503,-0.06472347240730787,0.00675129585884569,9.770421981881482
16.68,1765500281.7383137,1765500281738317949,-3.228132381336007e-06,2.596177293893484e-08,-2.990530092983855e-10,0.9999999999947892,-0.0017780839927990875,0.0017333592371185059,-2.906969031135721e-05,-0.017621838113054834,0.0018557848538388016,9.845403272842821
16.685,1765500281.743117,1765500281743124645,-3.2281323816184968e-06,2.5961774372148937e-08,-2.9905300930516176e-10,0.9999999999947892,0.002355615423094454,-0.0007384999134591929,0.0011436099770315582,0.020009232770679553,-0.01987941065049454,9.811642477146712
16.69,1765500281.7483907,1765500281748397164,-3.2281323788282385e-06,2.5961775805593474e-08,-2.990530090205587e-10,0.9999999999947892,0.0008015035581265957,0.0008022970235659637,0.0007317532824181424,-0.03773562372620944,0.027378609910199983,9.802781148833498
16.695,1765500281.7534952,1765500281753502226,-3.228132379110462e-06,2.5961774166578418e-08,-2.9905300905444e-10,0.9999999999947892,-0.0023043724219936985,-0.00031070698816816443,0.0022294886543955334,0.01873050478783133,-0.023689509013649086,9.80349872016439
16.7,1765500281.758242,1765500281758248521,-3.228132382465367e-06,2.5961775599968665e-08,-2.990530093729244e-10,0.9999999999947892,0.0014554461029809595,0.005363960618896658,-0.0012202972008405315,0.019797413367087298,0.05111996515914047,9.81811777771217
16.705,1765500281.763344,1765500281763348091,-3.22813238274759e-06,2.59617739608994e-08,-2.990530093864769e-10,0.9999999999947892,0.0007296851566193015,0.0006649752550955628,0.00044350414537814664,-0.0040780451771066355,-0.04949977841151236,9.77909760282378
16.71,1765500281.7686484,1765500281768653193,-3.228132383029874e-06,2.5961772321694608e-08,-2.990530094068057e-10,0.9999999999947892,0.0033973975218170764,-0.0027084746357556124,0.001984985417202568,-0.06800241319019154,-0.019512028362775408,9.828214928016676
16.715,1765500281.7733223,1765500281773328059,-3.2281323802397813e-06,2.5961776827469946e-08,-2.9905300913575517e-10,0.9999999999947892,0.0023423170161882144,0.005739545017729104,0.0003717963447187034,0.06276372201047577,0.05764355504964798,9.771154298538738
16.72,1765500281.778453,1765500281778456597,-3.228132380521858e-06,2.596177518852266e-08,-2.9905300914253143e-10,0.9999999999947892,0.0021764694032070223,-0.0005764878569089919,0.0014607433543030327,0.04341785428730648,0.007466635702922445,9.734761828041568
16.725,1765500281.7838259,1765500281783832252,-3.228132380804277e-06,2.5961773549222994e-08,-2.990530091493077e-10,0.9999999999947892,0.0009789126159718364,0.00019347546829757108,0.0007687532222836119,-0.12110913188657159,-0.008075532968802117,9.814477122139158
16.73,1765500281.7891507,1765500281789155676,-3.2281323810866554e-06,2.596177498249808e-08,-2.9905300917641275e-10,0.9999999999947892,-0.0022723044267015727,-0.00019598142529448677,0.001568825199104654,0.041812953298700724,0.05668839322942019,9.763912032488722
16.735,1765500281.7943437,1765500281794350355,-3.2281323782963853e-06,2.596177641592907e-08,-2.9905300889858594e-10,0.9999999999947892,-0.0031451910594083076,-0.00395664223337974,0.0023497222375397013,-0.05057927874884694,0.01759812845263179,9.824054807644012
16.74,1765500281.7989492,1765500281798955239,-3.2281323816510622e-06,2.596177477694786e-08,-2.9905300921029406e-10,0.9999999999947892,0.002065669410818717,-0.002069595238459849,0.002279669390727059,0.05087623454168873,0.06818849292281576,9.731471914487601
16.745,1765500281.8043308,1765500281804335747,-3.228132381933426e-06,2.5961776210290712e-08,-2.990530092441754e-10,0.9999999999947892,-0.0013857699349842142,0.0016677707888728087,-0.002834077620164683,-0.06204489559176139,-0.027010298161574606,9.825048346828803
16.75,1765500281.8091273,1765500281809139616,-3.228132382215684e-06,2.5961774571207893e-08,-2.9905300926450417e-10,0.9999999999947892,-0.002309984964067315,-0.0033870455746645716,0.004283223834165462,-0.021383008274200893,0.009752229886414826,9.780309028566858
16.755,1765500281.8142705,1765500281814274496,-3.2281323824980173e-06,2.5961772932003098e-08,-2.990530092983855e-10,0.9999999999947892,0.0003774610285027265,-0.002322333487946375,0.003084288648655045,0.023259879484821402,-0.088302484510852,9.788080879756693
16.76,1765500281.8194792,1765500281819484108,-3.22813237970784e-06,2.596177436530533e-08,-2.990530090205587e-10,0.9999999999947892,0.0006972098130689137,-0.000657452135646452,-7.282813244728204e-05,-0.03366475978924151,0.013699076213459435,9.833656926257682
16.765,1765500281.8243196,1765500281824325111,-3.228132379990117e-06,2.596177579880404e-08,-2.990530090205587e-10,0.9999999999947892,4.703791832383456e-05,0.0004918578889865941,-0.005055107119349088,-0.04385285842976676,-0.01175045195460092,9.883270256720484
16.77,1765500281.8293183,1765500281829322690,-3.2281323802724356e-06,2.5961774159639904e-08,-2.9905300904766374e-10,0.9999999999947892,8.101666740756519e-05,0.0015785254903832747,-0.0006322403960467511,-0.016037184262807275,0.03701948885833346,9.760843695899755
16.775,1765500281.8344026,1765500281834406971,-3.228132380554764e-06,2.5961772520502872e-08,-2.9905300908154506e-10,0.9999999999947892,0.00126381412912243,-0.0017906699106466821,-0.000583156557330308,-0.024359623262398614,-0.005846692418591301,9.738092037893919
16.78,1765500281.839361,1765500281839364603,-3.2281323808371843e-06,2.596177702633916e-08,-2.9905300910187385e-10,0.9999999999947892,0.000968570360770309,-0.003722643227830665,-0.004697197742383749,0.008038756899290903,-0.021547615791826992,9.758516079334802
16.785,1765500281.8445451,1765500281844548654,-3.2281323811192894e-06,2.596177538741898e-08,-2.990530090950976e-10,0.9999999999947892,0.0012193525649609445,0.0008211712503379262,-0.00021362015244891014,-0.028033198833087268,-0.03925040407746274,9.735605573065374
16.79,1765500281.8496854,1765500281849690615,-3.2281323814016013e-06,2.596177374824129e-08,-2.9905300913575517e-10,0.9999999999947892,-0.0010256672157303649,0.0008371248537585172,0.001612489061858991,-0.02012473704599041,-0.03185187517004854,9.798554574125813
16.795,1765500281.8548076,1765500281854812283,-3.228132381683987e-06,2.5961775181557034e-08,-2.9905300915608396e-10,0.9999999999947892,-0.0012791876600185333,-0.00014555069256948582,0.007465261313133534,-0.051187205344390474,0.07221786129313512,9.796579411429958
16.8,1765500281.8595572,1765500281859560945,-3.228132381966224e-06,2.5961773542514873e-08,-2.990530091628602e-10,0.9999999999947892,0.00023808818553152915,-0.003043632710045614,-0.0005340707279440411,0.010983819809024142,0.03500101981801871,9.788233666188782
16.805,1765500281.8644123,1765500281864416033,-3.2281323791761234e-06,2.5961774975701906e-08,-2.990530088714809e-10,0.9999999999947892,0.003860863979130173,-0.0029541835642594495,-0.0004710786384455156,0.07027640143759363,0.008958808443688812,9.818854378854278
16.81,1765500281.8698027,1765500281869807433,-3.228132379458353e-06,2.5961776409132857e-08,-2.990530088850334e-10,0.9999999999947892,0.0025205700725263644,0.0037873456064051662,-0.0035917384190526603,-0.023922251917047957,0.04021341230812994,9.78834280663946
16.815,1765500281.8749213,1765500281874925446,-3.22813237974062e-06,2.5961774770056815e-08,-2.9905300889858594e-10,0.9999999999947892,0.0001246325907532256,-0.0036802287945918903,0.0011435230059294893,0.038875018113034704,0.012281843364225156,9.793705750473714
16.82,1765500281.8800983,1765500281880101770,-3.2281323830954016e-06,2.59617731309333e-08,-2.9905300921707033e-10,0.9999999999947892,-0.003047805671683152,0.0016662249701546003,-0.0007084494318450136,-0.04222830224939521,0.05009016181902684,9.79519625531391
16.825,1765500281.8852262,1765500281885230422,-3.2281323803053204e-06,2.5961777636715414e-08,-2.9905300895279605e-10,0.9999999999947892,0.0008732507686090656,-0.002743530991594881,-0.0035418335864804075,-0.004391578914458376,-0.08411987980029859,9.877486101240192
16.83,1765500281.8901868,1765500281890190392,-3.2281323805874e-06,2.596177599776135e-08,-2.990530089663486e-10,0.9999999999947892,-0.0014618551360555934,0.002049641587728769,-0.0013569481677239291,0.052306748836521734,0.03584415607000791,9.78376644063636
16.835,1765500281.89526,1765500281895263513,-3.2281323808697286e-06,2.5961774358576885e-08,-2.990530089799011e-10,0.9999999999947892,-0.0009933397770314056,-0.0007376460549196552,0.0007286451014002146,-0.06355841454033817,0.027462172243923264,9.812909537874594
16.84,1765500281.9005723,1765500281900576567,-3.228132381152105e-06,2.5961775791906186e-08,-2.990530090002299e-10,0.9999999999947892,-0.0014711939898026925,-0.000523613105488596,0.0010328464362504832,-0.05365653987445152,-0.05756717571604419,9.757654746175477
16.845,1765500281.9055433,1765500281905547366,-3.228132381434437e-06,2.5961774152782703e-08,-2.990530090137824e-10,0.9999999999947892,-0.002943170545641809,0.00046564732522890687,0.0021725079998156562,-0.08416139477854634,0.0250270029247639,9.797272624779087
16.85,1765500281.9106944,1765500281910697721,-3.228132378644303e-06,2.5961775586118817e-08,-2.990530087562844e-10,0.9999999999947892,0.00028516282982674616,-0.001758952944144289,-0.0019005501117416957,-0.060149753467330154,0.014257910345914815,9.832912521519457
16.855,1765500281.9157295,1765500281915733171,-3.228132378926455e-06,2.5961773947063106e-08,-2.990530087562844e-10,0.9999999999947892,0.00011197678618259008,-0.004365551123383203,3.6331713886539145e-05,-0.08605083150893635,-0.03542638337808795,9.747725660854497
16.86,1765500281.9211152,1765500281921121092,-3.2281323822813276e-06,2.5961775380568554e-08,-2.9905300906121627e-10,0.9999999999947892,-0.002408223845880819,-0.0012020125478614304,-0.0014836001016465142,0.052153089943756614,0.0014585195344658528,9.739227111898314
16.865,1765500281.9261107,1765500281926115354,-3.2281323825636416e-06,2.5961773741384088e-08,-2.990530090950976e-10,0.9999999999947892,0.0040522755468644965,0.00032856266223400685,0.0053230660129813135,-0.03631170140112431,-0.041036985107235635,9.730402738958333
16.87,1765500281.9310193,1765500281931022771,-3.228132382845944e-06,2.5961772102192845e-08,-2.9905300912220264e-10,0.9999999999947892,0.001311386266123051,-0.0011916331878390203,-0.0008918929027208427,0.017030482567654097,0.04884052911483402,9.818429541588257
16.875,1765500281.936243,1765500281936247715,-3.228132380055797e-06,2.5961776607941082e-08,-2.9905300884437583e-10,0.9999999999947892,0.0009640598133227088,0.003700441694559724,0.002472051733292556,-0.07133742445704919,0.010188214838106315,9.838720575953857
16.88,1765500281.9412339,1765500281941237362,-3.228132380337886e-06,2.59617749690209e-08,-2.990530088647046e-10,0.9999999999947892,0.003831561512934167,0.0005071428326841786,-0.00240003776605975,0.022300563553933395,0.06050243131878843,9.817681769708773
16.885,1765500281.946152,1765500281946155860,-3.2281323806202778e-06,2.5961773329741563e-08,-2.990530088850334e-10,0.9999999999947892,0.00015393415312487895,-0.0012164519917834118,-0.0018515733733895365,-0.0197630421378354,-0.010823364020360934,9.78620092556498
16.89,1765500281.9514291,1765500281951434620,-3.228132380902645e-06,2.5961774763036983e-08,-2.9905300891891473e-10,0.9999999999947892,0.00047334475299326263,-0.0021301080562534528,-0.002730187501152612,-0.03669213420306228,0.041670800988802784,9.824744854564818
16.895,1765500281.956306,1765500281956309752,-3.228132378112362e-06,2.596177619648152e-08,-2.990530086410879e-10,0.9999999999947892,-0.0010893856037865936,0.004390405385657353,0.0013463173330289751,0.012257060259173868,-0.014340218025886486,9.819144053477096
16.9,1765500281.9612772,1765500281961281676,-3.228132381467086e-06,2.5961774557554523e-08,-2.990530089663486e-10,0.9999999999947892,0.0034211751954429555,-0.0018820515780431266,0.002849826180458042,-0.016399744624055117,-0.07964104475891393,9.85009236516538
16.905,1765500281.9665744,1765500281966579999,-3.2281323817494786e-06,2.596177599082961e-08,-2.990530090002299e-10,0.9999999999947892,-0.0013993777274880228,-0.0019466679616763432,0.0023209359131942456,0.00016684060324873983,0.034805794362559137,9.783729241430775
16.91,1765500281.971645,1765500281971649718,-3.2281323820317277e-06,2.596177435174679e-08,-2.990530090205587e-10,0.9999999999947892,0.00204670518905155,0.004648464790508716,0.00022931209932614894,0.09550931519782337,-5.556504321076848e-05,9.883315767398802
16.915,1765500281.9765446,1765500281976549040,-3.2281323823140625e-06,2.596177271258943e-08,-2.990530090341112e-10,0.9999999999947892,0.0007097088618843307,-0.0045702073736802505,-0.0030037360590114844,-0.011446922799296136,0.0014621831071034218,9.876196469396657
16.92,1765500281.981298,1765500281981302722,-3.2281323795239546e-06,2.5961777218351217e-08,-2.990530087562844e-10,0.9999999999947892,0.0009885061991275897,0.0005375208432387249,-0.000950205493480379,-0.003475011150683764,-0.013723645835702047,9.829205625571582
16.925,1765500281.98671,1765500281986714227,-3.2281323798061864e-06,2.5961775579342937e-08,-2.9905300876306067e-10,0.9999999999947892,0.006149476491922613,-0.0034949013899736613,0.0003604797143934159,-0.07570211090485691,0.030478301339142835,9.838751510338213
16.93,1765500281.9917777,1765500281991781475,-3.228132380088476e-06,2.5961773940151698e-08,-2.990530087766132e-10,0.9999999999947892,-0.0015221322051448677,-0.00205028535967141,-0.0017730700517755952,0.011144119958506218,-0.01977212782376808,9.842098784980431
16.935,1765500281.996669,1765500281996673166,-3.2281323803708444e-06,2.5961775373426785e-08,-2.9905300880371825e-10,0.9999999999947892,0.0022765245504300867,-0.0033011544849168724,0.0006117314568947972,-0.020552485804162603,0.0020937507724043593,9.740193268146127
16.94,1765500282.0023148,1765500282002320595,-3.228132380653059e-06,2.5961776806911947e-08,-2.9905300880371825e-10,0.9999999999947892,-0.0006711878408043671,-0.001606469849379875,-0.0008866229214615172,-0.025854615371379345,-0.025470935372728463,9.775661807504745
16.945,1765500282.0072112,1765500282007216293,-3.2281323809353266e-06,2.5961775167720705e-08,-2.990530088172708e-10,0.9999999999947892,-0.0015871324006667474,0.0035733862531213915,-0.007429044942311022,-0.021709159578787017,0.015214771038158043,9.893541269313653
16.95,1765500282.0121665,1765500282012170896,-3.2281323812174877e-06,2.596177352865822e-08,-2.990530088511521e-10,0.9999999999947892,-0.00015479419335962089,-9.013365140790074e-05,0.004656612963494572,0.03513917668511794,-0.015188390412529847,9.806099837827135
16.955,1765500282.017367,1765500282017371855,-3.2281323814998135e-06,2.596177496208239e-08,-2.990530088714809e-10,0.9999999999947892,0.0006592159871631603,-0.00496270673544975,8.857263380302594e-05,-0.07134263658608116,-0.03862407716972086,9.8107957623826
16.96,1765500282.022347,1765500282022351377,-3.2281323817820987e-06,2.5961773322911477e-08,-2.990530088918097e-10,0.9999999999947892,0.006334662928900843,0.0060393735822395975,0.0013445956112902594,0.0065828049972774015,-0.026932077167620708,9.791244955845222
16.965,1765500282.0272985,1765500282027302065,-3.2281323789920204e-06,2.596177475607818e-08,-2.990530085936541e-10,0.9999999999947892,0.001596204586366651,0.004680029329785523,0.004309723634224246,-0.012636238199097155,0.030403195638614062,9.807867162964001
16.97,1765500282.0322323,1765500282032240683,-3.2281323792742607e-06,2.596177618950913e-08,-2.9905300861398287e-10,0.9999999999947892,-0.004618756735118473,-0.0022354697126739267,0.0029479766966043685,0.011065188597468327,-0.03531289410905751,9.847951589377734
16.975,1765500282.037732,1765500282037737122,-3.2281323795565103e-06,2.5961774550487297e-08,-2.9905300863431166e-10,0.9999999999947892,-0.001982393457640262,-0.0013588146854054922,-0.00040676392765906104,0.010974970119717584,-0.03816109961267015,9.80552504974228
16.98,1765500282.0428746,1765500282042882708,-3.228132382911339e-06,2.5961772911370557e-08,-2.990530089663486e-10,0.9999999999947892,0.000412701103369259,-0.00118341791084113,0.003248163116906505,-0.04427967808335792,-0.0064710237836991605,9.762734153746186
16.985,1765500282.0474746,1765500282047481772,-3.228132383193745e-06,2.5961774344686302e-08,-2.990530089799011e-10,0.9999999999947892,-0.0023209793111659367,-0.0005238436451194391,-0.0014301118348332995,-0.02884348448738118,-0.051354889244910114,9.733665877749939
16.99,1765500282.052912,1765500282052928162,-3.2281323804034704e-06,2.5961775778103734e-08,-2.9905300869529803e-10,0.9999999999947892,0.0007393229101964222,-0.0016025490472366438,-0.002881068547592702,-0.029943881731740167,0.03282317427247724,9.788590314671787
16.995,1765500282.057894,1765500282057905292,-3.228132380685655e-06,2.5961774139068353e-08,-2.990530087156268e-10,0.9999999999947892,-0.002307496902408847,-0.0008988838260401646,0.0026601586225691617,0.07719762550551569,-0.01677589477017347,9.783424592750846
17.0,1765500282.063358,1765500282063366977,-3.228132380968049e-06,2.5961775572404427e-08,-2.990530087359556e-10,0.9999999999947892,-0.0028410826600436304,0.0045622582579801976,-0.001605224612630135,-0.0013069920451404045,-0.04255108622256157,9.800961711015834
17.005,1765500282.0686924,1765500282068701450,-3.228132381250372e-06,2.5961773933253842e-08,-2.990530087359556e-10,0.9999999999947892,-0.002165025669136862,-0.0013907377733573555,0.004445218684572285,-0.06005719083687062,0.016062706857135015,9.72678529723367
17.01,1765500282.073124,1765500282073134140,-3.2281323784601756e-06,2.596177536653575e-08,-2.9905300847168133e-10,0.9999999999947892,0.0012866685190871662,0.0008122405548009721,0.0006727426933716095,0.019595771779882327,-0.019566003316318564,9.782530616920571
17.015,1765500282.0784605,1765500282078468203,-3.2281323787424265e-06,2.5961776799973473e-08,-2.9905300848523386e-10,0.9999999999947892,-0.0004662564717446209,-0.0018031506551878357,0.0009275740665275542,0.0026370941010080895,-0.06503421611763502,9.814253769839416
17.02,1765500282.083551,1765500282083564786,-3.2281323820971826e-06,2.5961775160951605e-08,-2.9905300878338946e-10,0.9999999999947892,0.0025222331693429364,-0.002212636571744205,0.0038514694994883016,0.011037692204435158,0.008520428998888824,9.827823385842638
17.025,1765500282.0883422,1765500282088353058,-3.2281323823794437e-06,2.5961773521746813e-08,-2.9905300880371825e-10,0.9999999999947892,0.0024100810559701804,-0.001540629336039386,0.004709259146652734,0.05449028862378968,-0.0173903551609751,9.731613924781854
17.03,1765500282.0932872,1765500282093294244,-3.2281323826618415e-06,2.5961774955055782e-08,-2.990530088308233e-10,0.9999999999947892,0.000657555743471739,-0.0016981057323754583,0.002282678328355535,0.005173093935542648,-0.033941836984134006,9.85444244156776
17.035,1765500282.098509,1765500282098515364,-3.2281323798715464e-06,2.596177638845289e-08,-2.990530085529965e-10,0.9999999999947892,0.001045915982404751,0.00042873024080795,0.0023836693600312875,-0.026397374939865777,-0.04215106180741772,9.751808197255457
17.04,1765500282.103965,1765500282103970706,-3.228132380153776e-06,2.5961774749410728e-08,-2.990530085733253e-10,0.9999999999947892,-0.0033955249296033817,-0.006423011078008686,0.00040841586429169,-0.020290226664786245,-0.04485100845943028,9.826496349343468
17.045,1765500282.1088986,1765500282108903587,-3.2281323804361828e-06,2.5961773110144943e-08,-2.990530085936541e-10,0.9999999999947892,-0.0006324779433751382,-0.00042503463606757846,-0.0011053649945514407,-0.026047496140759678,-0.045889194134651624,9.756595962803399
17.05,1765500282.1138291,1765500282113832591,-3.2281323807185027e-06,2.5961774543575888e-08,-2.9905300860043034e-10,0.9999999999947892,0.0020129042224708016,0.0030910645353563757,-0.001313326384919318,0.002152597513516595,0.024551169235216438,9.827143223373131
17.055,1765500282.119217,1765500282119222936,-3.228132377928323e-06,2.5961775976857792e-08,-2.9905300832260354e-10,0.9999999999947892,0.00050789013324572,-0.0048030558398038685,-0.001872509944854092,-0.036255869866781656,0.008595680478151702,9.796740323084776
17.06,1765500282.124152,1765500282124155580,-3.2281323812830273e-06,2.5961774337890137e-08,-2.990530086478642e-10,0.9999999999947892,-0.003491804971412212,-0.00021733435969095572,0.00035389312226598,-0.01606163738498568,-0.007589322774167772,9.77112122623509
17.065,1765500282.1292932,1765500282129296585,-3.2281323815654065e-06,2.596177577119233e-08,-2.990530086614167e-10,0.9999999999947892,-0.0019729622844431574,0.004214852610818046,-0.004316757572479404,-0.038970893320844364,0.032581522076213204,9.809186535872287
17.07,1765500282.1344018,1765500282134418883,-3.2281323818476285e-06,2.5961774132102734e-08,-2.9905300865464045e-10,0.9999999999947892,0.00045913819911353804,-0.0006250307638739158,0.0016248816991643207,0.004047456116928582,0.09634140897389479,9.835636399134215
17.075,1765500282.1393569,1765500282139360743,-3.228132382129908e-06,2.596177249290472e-08,-2.9905300867496924e-10,0.9999999999947892,0.0015562913265866805,-0.0011446500518660291,-0.0005835227356878616,-0.023908150161983,-0.02214738971041748,9.769664775694974
17.08,1765500282.1447005,1765500282144709696,-3.2281323793398447e-06,2.5961776998713936e-08,-2.9905300841069496e-10,0.9999999999947892,-0.002006858107221711,-5.9503158682107563e-05,0.002158104846619338,0.011901902897824248,0.05397148482079142,9.759295938466787
17.085,1765500282.1496198,1765500282149624580,-3.228132379622049e-06,2.596177535970566e-08,-2.9905300841747123e-10,0.9999999999947892,-0.0010084115778842327,-0.001467437055144756,0.0002257292136537875,-0.02395451619370772,-0.0023794826234518653,9.795127679576778
17.09,1765500282.1547344,1765500282154738369,-3.228132379904306e-06,2.5961773720473763e-08,-2.9905300843102375e-10,0.9999999999947892,-0.0010033410399514474,0.0001770146046740449,-0.003558897728912112,0.053432533703737295,-0.07295891214324843,9.857215640082352
17.095,1765500282.159485,1765500282159489051,-3.2281323801866985e-06,2.5961775153775955e-08,-2.9905300845135254e-10,0.9999999999947892,0.00011242349345579394,-0.0009668014802283436,0.002540576782812357,0.016959723320013272,0.0036385557921570387,9.794163006900764
17.1,1765500282.1645424,1765500282164546471,-3.2281323835414263e-06,2.5961773514774415e-08,-2.9905300876306067e-10,0.9999999999947892,-0.000408170537096302,-0.00040915617702450815,0.00117636410281854,-0.017373568260028765,0.009299398210183898,9.774439044452283
17.105,1765500282.1697598,1765500282169772118,-3.2281323807512253e-06,2.5961774948049546e-08,-2.9905300848523386e-10,0.9999999999947892,-0.004432575820831948,0.002147301961241333,0.0017024599631008956,0.061196627046782755,-0.05449978846121105,9.764285425701626
17.11,1765500282.1747756,1765500282174779392,-3.228132381033464e-06,2.5961776381473718e-08,-2.9905300850556265e-10,0.9999999999947892,0.0022688706673958895,0.004966363200492244,-0.004213116368788279,-0.07564583385882463,-0.029770249523529663,9.809471734589076
17.115,1765500282.1798618,1765500282179865267,-3.2281323813157105e-06,2.5961774742418004e-08,-2.9905300852589144e-10,0.9999999999947892,0.00012726824004221366,0.00017318647717243314,0.0025078091883899687,0.007545661244075058,0.03824570286832926,9.765803484780394
17.12,1765500282.1850615,1765500282185066423,-3.2281323815980045e-06,2.5961773103186108e-08,-2.9905300853944397e-10,0.9999999999947892,0.001106784043069475,0.0001907798910952077,-0.002558447992239584,-0.11813464837240359,-0.033168591077369795,9.856201513543574
17.125,1765500282.1901135,1765500282190116964,-3.22813237880798e-06,2.596177760889368e-08,-2.9905300826161716e-10,0.9999999999947892,-0.00017104974511229537,-0.000900665142623251,0.00010756927169014158,-0.05754572925975304,-0.0011139428235638026,9.800279972169204
17.13,1765500282.1951363,1765500282195141098,-3.228132379090108e-06,2.5961775969993824e-08,-2.9905300826839343e-10,0.9999999999947892,-0.0008176122251388076,-0.0049923274796531535,-0.000493154192839035,0.03535743152527842,-0.01542029577405144,9.851440785782515
17.135,1765500282.200562,1765500282200567018,-3.228132382444884e-06,2.5961774330863535e-08,-2.990530085868778e-10,0.9999999999947892,0.0017450664333567662,-0.0015691684470362688,-0.0001599026730176962,0.004477242806206507,0.05081431380843963,9.807474544155282
17.14,1765500282.2055707,1765500282205574567,-3.2281323827271587e-06,2.5961772691679072e-08,-2.9905300860043034e-10,0.9999999999947892,0.0018795244441709717,-0.003604925322356602,0.0006576584392803499,-0.03213858891893149,-0.056653286365116795,9.846577366145116
17.145,1765500282.2104034,1765500282210407188,-3.228132383009532e-06,2.5961774124940607e-08,-2.990530086275354e-10,0.9999999999947892,-0.0009189797680041083,0.0009301115895745803,0.0008394760152126787,-0.016768751665524065,0.07458480251535488,9.849096002373285
17.15,1765500282.2154365,1765500282215440429,-3.2281323802192848e-06,2.5961775558385145e-08,-2.9905300834293233e-10,0.9999999999947892,-0.0015564179498603699,-0.0005026438127923154,-0.0017875462862477073,0.010400294582598132,-0.013526142688960269,9.823025579556282
17.155,1765500282.2206752,1765500282220679607,-3.22813238050147e-06,2.5961773919363316e-08,-2.990530083632611e-10,0.9999999999947892,0.0004129046456477639,0.0021887298678839625,-0.0029362931824215353,0.02901652930342324,0.00825712397571759,9.88577064469207
17.16,1765500282.2257373,1765500282225741097,-3.2281323807838763e-06,2.596177535264518e-08,-2.9905300839036617e-10,0.9999999999947892,0.003990666220211709,0.0007677909939198946,-0.0020480400207349555,0.03814651024408395,0.028386142289814394,9.796074655674673
17.165,1765500282.2307713,1765500282230775479,-3.228132381066216e-06,2.5961773713508147e-08,-2.9905300839714244e-10,0.9999999999947892,-0.0007518943036712529,-0.0017046322447657409,0.0030941005064303237,0.03355270701322041,0.023723038827651515,9.793604527818397
17.17,1765500282.235946,1765500282235949471,-3.2281323782760307e-06,2.596177514679005e-08,-2.9905300811931563e-10,0.9999999999947892,0.0026762036162972986,-0.00026648388920716344,0.005019290039925977,-0.025223579035786734,-0.0014304172664787844,9.800495604579599
17.175,1765500282.2408383,1765500282240842420,-3.2281323785584115e-06,2.596177658006514e-08,-2.990530081396444e-10,0.9999999999947892,-0.0014261851446155686,-0.003951906658345844,-0.0010321028396954814,0.07851179695990868,-0.020998463497176642,9.734818308925616
17.18,1765500282.2461221,1765500282246125891,-3.228132381913021e-06,2.5961774941192354e-08,-2.990530084445763e-10,0.9999999999947892,-0.002884451763463765,-0.0040204991481678975,0.0024871066856287606,-0.03218998475365266,0.015724365068310604,9.836985218535906
17.185,1765500282.251225,1765500282251229252,-3.228132382195324e-06,2.5961773302007888e-08,-2.990530084581288e-10,0.9999999999947892,-4.8613764983446485e-05,0.0017588632881209434,0.0013400941106139542,0.0034376789895848715,-0.06679337079184984,9.774625985444526
17.19,1765500282.2563121,1765500282256317206,-3.2281323824777092e-06,2.5961774735310084e-08,-2.9905300848523386e-10,0.9999999999947892,-0.001500973046843641,0.0022072322421519326,-0.002314610408808858,0.07049389781682514,-0.1127101801699726,9.806625619309395
17.195,1765500282.261324,1765500282261328171,-3.228132379687447e-06,2.5961776168707188e-08,-2.990530082141833e-10,0.9999999999947892,-0.002089009530235943,0.007002091423747055,0.004315622738048987,0.016158562849177237,0.03336508010686503,9.821915912689473
17.2,1765500282.2662776,1765500282266284417,-3.2281323799696307e-06,2.596177452966503e-08,-2.9905300824128837e-10,0.9999999999947892,0.0026945476578360363,0.0002849324887074376,-0.0028521329898815555,-0.008842915655116818,0.05237936967749941,9.812264765903532
17.205,1765500282.2716558,1765500282271660898,-3.2281323802520997e-06,2.596177596291301e-08,-2.9905300824806464e-10,0.9999999999947892,2.265273756051541e-05,0.002986887664488188,-0.0010296859973249332,-0.010843023901597507,0.014418573518248665,9.77791454952878
17.21,1765500282.2763393,1765500282276345861,-3.2281323805343306e-06,2.5961774323843743e-08,-2.990530082548409e-10,0.9999999999947892,-0.0026339176101060863,-0.000263396568873881,-0.0005268876202003498,-0.03778414827785473,0.1115272375449586,9.765798584113469
17.215,1765500282.2816458,1765500282281653298,-3.228132383889167e-06,2.5961772684754108e-08,-2.990530085733253e-10,0.9999999999947892,0.0032549001020150273,0.0036096833258170494,6.375882398397793e-05,-0.060256682880982564,0.04440771400095216,9.789990179987036
17.22,1765500282.2867506,1765500282286756629,-3.2281323810990653e-06,2.596177719050234e-08,-2.9905300830227475e-10,0.9999999999947892,-0.004355603497252516,0.004248327489104738,-0.006116560977556949,0.04283070888870705,0.036735723352015096,9.80952766978908
17.225,1765500282.2918189,1765500282291822610,-3.2281323813811827e-06,2.5961775551622817e-08,-2.99053008309051e-10,0.9999999999947892,-0.00022543129214717015,-0.0009657024182156957,0.0026911252485065564,-0.037978800791558034,-0.026857589658685812,9.749294378142265
17.23,1765500282.2968614,1765500282296868493,-3.228132381663509e-06,2.5961773912451904e-08,-2.9905300833615606e-10,0.9999999999947892,0.0009719473103013255,-0.0013929747770263948,-0.00013510565700126522,0.05643946170666525,0.016494557097960875,9.783833774636028
17.235,1765500282.3025458,1765500282302552117,-3.228132381945807e-06,2.5961772273233557e-08,-2.990530083497086e-10,0.9999999999947892,-0.0038745612792163452,-0.004904734194471638,0.00244658215117643,-0.04216017500029086,-0.018589910040134525,9.781538640107852
17.24,1765500282.306932,1765500282306940209,-3.2281323791558052e-06,2.59617767789208e-08,-2.9905300807865805e-10,0.9999999999947892,-0.000260012023546117,0.001896275272537012,-0.004291575578467449,0.09698321471821957,-0.029783972425071806,9.818637058485193
17.245,1765500282.3119826,1765500282311986247,-3.2281323794378833e-06,2.5961775139993846e-08,-2.990530080922106e-10,0.9999999999947892,0.0012004137920325567,0.0008921202180841145,0.0005347973576902309,-0.03768474606715525,-0.0827496171823142,9.815525122831811
17.25,1765500282.3172467,1765500282317259482,-3.228132379720148e-06,2.5961773500782275e-08,-2.9905300811253937e-10,0.9999999999947892,0.0015259153610872379,-0.0006419895040223323,0.0002765681870811088,0.06507973061464067,-0.04684435281029227,9.862568437111978
17.255,1765500282.322335,1765500282322339436,-3.2281323830750203e-06,2.5961774934186078e-08,-2.9905300843102375e-10,0.9999999999947892,0.0008764503172089625,-0.0030490288419808987,-0.0023344740557090177,0.03195202944804732,0.05828866703559423,9.904002262507776
17.26,1765500282.3273025,1765500282327307053,-3.2281323833572733e-06,2.596177329510326e-08,-2.990530084445763e-10,0.9999999999947892,0.0005210268860237432,-0.0006945314394464758,0.0048173745741198854,0.04304533815202617,-0.058282785501343685,9.807996829626589
17.265,1765500282.3324468,1765500282332451185,-3.2281323805670896e-06,2.5961774728385163e-08,-2.99053008180302e-10,0.9999999999947892,0.0031879611207268716,-0.003262227605815965,-0.0015149361893818352,0.06315634421902548,0.061985246194951514,9.819305253787281
17.27,1765500282.3375034,1765500282337508589,-3.228132380849323e-06,2.596177616181611e-08,-2.990530082006308e-10,0.9999999999947892,-0.0010244738238299861,0.0004034290073760023,0.002975171773149875,-0.012465009942888268,-0.030090221815551734,9.851350079443124
17.275,1765500282.342563,1765500282342571241,-3.228132381131559e-06,2.596177452274007e-08,-2.9905300820740706e-10,0.9999999999947892,0.0013567029203998835,-0.0013339756825928525,0.0036282196586558462,-0.016436162626924294,0.028070195267839066,9.814187483443703
17.28,1765500282.347353,1765500282347356902,-3.2281323814139523e-06,2.596177288348106e-08,-2.990530082141833e-10,0.9999999999947892,-0.0006988392196938993,-0.0014245817516344516,0.0017384373436643665,0.01886759115267101,-0.004356334955320634,9.77104167650164
17.285,1765500282.352426,1765500282352436831,-3.2281323786238495e-06,2.5961777389310613e-08,-2.990530079431328e-10,0.9999999999947892,0.0002126594891429065,0.004248511848134067,0.0006925370187399523,-0.02915240322662754,-0.011052754530773432,9.857963151479673
17.29,1765500282.35737,1765500282357377367,-3.2281323789059386e-06,2.5961775750376878e-08,-2.9905300796346157e-10,0.9999999999947892,0.0002780232515637365,0.0027845674299711554,-0.0028648270715054248,0.07455704536254328,-0.041751929548287166,9.826450871791481
17.295,1765500282.3623555,1765500282362359384,-3.2281323822607536e-06,2.5961774111233034e-08,-2.9905300828194595e-10,0.9999999999947892,-0.0009559056529614579,-0.0012504048388374807,-0.0004730538044479234,-0.009139394273758074,0.07223634550260394,9.726898815819924
17.3,1765500282.3677955,1765500282367809827,-3.228132382543119e-06,2.5961775544542002e-08,-2.990530082954985e-10,0.9999999999947892,0.0030743363860806666,-0.0020513791135370356,-0.0009206626456412972,0.008515982297145591,-0.026950015066778646,9.776475703302792
17.305,1765500282.3728964,1765500282372900292,-3.2281323828253413e-06,2.5961773905499845e-08,-2.99053008309051e-10,0.9999999999947892,0.000790367249102951,-0.0009399250863593857,0.0039959278909157125,-0.0478915054845918,-0.0129257709033231,9.833982765852353
17.31,1765500282.3777869,1765500282377791878,-3.228132380035166e-06,2.5961775338768196e-08,-2.99053008051553e-10,0.9999999999947892,0.00833147773830838,0.004528341077631821,-0.00034954586992213697,0.006224620792434734,0.005781998010842832,9.736513618499703
17.315,1765500282.3831007,1765500282383108078,-3.228132380317289e-06,2.5961773699678607e-08,-2.9905300805832926e-10,0.9999999999947892,0.000750715220409559,-0.0011942435820882188,-0.00014369960908821463,-0.05749866022878942,0.004888179876645512,9.76197942223373
17.32,1765500282.388362,1765500282388366076,-3.2281323805997063e-06,2.5961775133041783e-08,-2.990530080718818e-10,0.9999999999947892,0.0023575410123468435,-0.0010975672515898037,-0.002156189722693378,0.049104958894701664,0.042505478558066835,9.855983043627106
17.325,1765500282.393209,1765500282393213972,-3.228132380881995e-06,2.596177349383699e-08,-2.990530080854343e-10,0.9999999999947892,-0.00020649035939629523,-0.0004188896028192324,0.003543897218228897,-0.0475477373726115,-0.007249343030686829,9.892839075238031
17.33,1765500282.3981905,1765500282398194033,-3.2281323780918078e-06,2.596177492711212e-08,-2.9905300781438377e-10,0.9999999999947892,0.0017058920478195368,-0.0018678771874076534,-0.006645049410204146,0.03947370256406436,-0.07166755157167941,9.816724779458893
17.335,1765500282.403517,1765500282403522104,-3.2281323814466258e-06,2.5961776360671777e-08,-2.9905300811931563e-10,0.9999999999947892,0.0008527450359747958,0.0031967821609670557,0.0012164739569859623,0.01771655783836988,-0.008787379338391903,9.759662855235236
17.34,1765500282.4082422,1765500282408246760,-3.2281323817288393e-06,2.5961774721602514e-08,-2.990530081396444e-10,0.9999999999947892,3.4091440181521166e-05,0.0047013912211324,-0.0058158631821285806,0.011919377882405801,0.0038119017960589327,9.778653938097477
17.345,1765500282.413147,1765500282413150420,-3.2281323820111563e-06,2.5961773082418048e-08,-2.990530081599732e-10,0.9999999999947892,-0.0005545434087745798,0.0012671941830959736,0.00018030560736482482,0.010155502061349774,-0.028646432520731114,9.839793541511705
17.35,1765500282.4184206,1765500282418432705,-3.228132382293538e-06,2.5961774515693135e-08,-2.99053008180302e-10,0.9999999999947892,-0.0011866743920081924,0.0025485610917566764,-0.0018599523315703298,0.009340059507684555,0.04684187713158678,9.821445335268885
17.355,1765500282.4233496,1765500282423354276,-3.228132379503286e-06,2.5961775949097015e-08,-2.990530078821464e-10,0.9999999999947892,-0.003249613455495589,-0.004286063390340596,-0.0008456859569779812,-0.06561270529552021,-0.051930697163735634,9.80423480113422
17.36,1765500282.4282484,1765500282428252472,-3.2281323797855666e-06,2.5961774309959986e-08,-2.9905300789569893e-10,0.9999999999947892,-0.0009115867450701169,-6.973147829024866e-05,0.00013910521645212537,0.035424873023417895,0.013176953777694485,9.78507410464617
17.365,1765500282.4334838,1765500282433489645,-3.228132380067954e-06,2.5961775743289284e-08,-2.99053007922804e-10,0.9999999999947892,0.0012024713349952964,-0.0006114750246188282,-0.002827250513100029,-0.06424478181782498,0.07868079313510812,9.695437051840514
17.37,1765500282.4383779,1765500282438382114,-3.2281323803501806e-06,2.5961774104220018e-08,-2.990530079363565e-10,0.9999999999947892,0.00031659607599278193,0.0007037896916745745,-0.003891146150152159,0.08204731331100301,-0.05330181997136512,9.805071608151312
17.375,1765500282.4433796,1765500282443383343,-3.2281323837050066e-06,2.5961772465123607e-08,-2.9905300826161716e-10,0.9999999999947892,0.004042406164848597,0.0016573928794989471,-0.003978275596213401,0.035393673770814454,-0.009219204782261396,9.739730511315337
17.38,1765500282.4485104,1765500282448518013,-3.2281323809148856e-06,2.5961776970892172e-08,-2.990530079973429e-10,0.9999999999947892,0.0015947856132451723,-0.0007494394500281077,-0.0029574824831818253,0.006127093215395847,0.00493625300149285,9.735778022094122
17.385,1765500282.453786,1765500282453790817,-3.2281323811969484e-06,2.5961775331944885e-08,-2.990530079973429e-10,0.9999999999947892,-0.0036942815900387884,0.0019791125878947822,-0.00017208349572822302,-0.059705807802128086,-0.004984428717746534,9.76376179620069
17.39,1765500282.4586701,1765500282458673794,-3.228132381479238e-06,2.5961773692753647e-08,-2.990530080176717e-10,0.9999999999947892,-0.00018298906635674285,-0.0009161884982385605,-0.0022455079771384443,-0.011029721635013357,-0.08212016023329688,9.809263475592815
17.395,1765500282.4636,1765500282463605878,-3.228132381761617e-06,2.5961775126028734e-08,-2.9905300805832926e-10,0.9999999999947892,0.002482613041678121,-0.006222688412036414,-0.0012999724758419623,-0.013765507860833475,-0.031167755225494306,9.83861369390678
17.4,1765500282.469093,1765500282469097624,-3.2281323789714667e-06,2.596177655935807e-08,-2.990530077669499e-10,0.9999999999947892,-0.003849113319234783,-0.0007335352839456625,-0.0024102195846157754,0.0432450835003014,-0.05312932394735021,9.8412660312218
17.405,1765500282.474493,1765500282474502254,-3.2281323792536587e-06,2.596177492032269e-08,-2.9905300778050245e-10,0.9999999999947892,-0.0012369603213132955,0.0034193681801294004,0.0017871789571214237,0.0362962139900852,0.03398950920956842,9.73436489187863
17.41,1765500282.4794037,1765500282479412531,-3.2281323795360506e-06,2.5961776353651988e-08,-2.990530078076075e-10,0.9999999999947892,-0.003172419538495939,0.0058056875502553,-0.005485565696453145,-0.02221660241170363,-0.09572412854200972,9.822719480192047
17.415,1765500282.4845753,1765500282484580504,-3.228132382890798e-06,2.5961774714670777e-08,-2.9905300811253937e-10,0.9999999999947892,-0.001188578210132518,-0.0034709961420541567,-0.0070425152014594854,-0.018461576474040026,0.00795756068680634,9.762825292255519
17.42,1765500282.4894178,1765500282489421569,-3.228132383173115e-06,2.5961773075459206e-08,-2.990530081260919e-10,0.9999999999947892,0.002245623304999033,0.0034445520624598277,-0.0046452370050803805,-0.0009779955878327052,-0.07301119117589173,9.860567933241837
17.425,1765500282.4943404,1765500282494343791,-3.2281323803829345e-06,2.5961774508734333e-08,-2.990530078414888e-10,0.9999999999947892,0.0020840926583341715,0.002892267452320153,-0.0012348632976612994,0.03975914187687746,0.009200895167163579,9.817433502808909
17.43,1765500282.4996364,1765500282499641554,-3.2281323806651138e-06,2.596177594230081e-08,-2.9905300785504135e-10,0.9999999999947892,0.0005925081246673922,-0.00048811300307110406,0.0012015733057773757,-0.03559232844183731,0.00856441765400862,9.857389408344252
17.435,1765500282.504816,1765500282504820928,-3.2281323809474027e-06,2.5961774303096018e-08,-2.990530078685939e-10,0.9999999999947892,0.002305659923379313,0.001095937610937903,-0.0032121483372095617,0.02896697642349281,0.04482647289195963,9.793628716576134
17.44,1765500282.509634,1765500282509639613,-3.228132381229813e-06,2.596177266381668e-08,-2.9905300788892267e-10,0.9999999999947892,-0.0034296195043958975,-0.0028032391156110016,7.178802040485238e-05,-0.02313054264326925,-0.06180598561352368,9.914157628585357
17.445,1765500282.5146022,1765500282514605495,-3.2281323784397295e-06,2.5961777169578464e-08,-2.9905300763142465e-10,0.9999999999947892,0.0028337394077824073,-0.000396115468878322,0.0006817317530851812,0.057871767756604485,0.1066191141395032,9.806841519442333
17.45,1765500282.5198038,1765500282519806914,-3.228132378721825e-06,2.5961775530671838e-08,-2.990530076449772e-10,0.9999999999947892,-0.002808759716211322,0.001913053373734805,-0.0007615197885432783,-0.0380404519481973,-0.028897215640426473,9.785915788696911
17.455,1765500282.5249207,1765500282524923946,-3.2281323820766717e-06,2.59617738915822e-08,-2.9905300796346157e-10,0.9999999999947892,0.002161094457724892,-8.63080988184297e-05,-0.0024632614623498056,0.02445715628078367,0.011292466380316743,9.864496608071684
17.46,1765500282.5300114,1765500282530014663,-3.2281323823590657e-06,2.596177532489117e-08,-2.990530079770141e-10,0.9999999999947892,0.0015914425333838,-0.0033347135789031585,-0.001447523302289584,0.02637667379488489,-0.04190387142651385,9.797540029281782
17.465,1765500282.5352526,1765500282535256052,-3.2281323826412937e-06,2.5961773685828682e-08,-2.990530079905666e-10,0.9999999999947892,0.001056037237776481,-2.991703559527202e-05,0.0019510509444932793,0.004727196259735673,0.037067469521872426,9.880107999905299
17.47,1765500282.5402353,1765500282540238599,-3.2281323798510685e-06,2.5961775119110586e-08,-2.990530077127398e-10,0.9999999999947892,-0.0048475673307210344,-0.0004821666936317592,0.0031191213085205362,0.05892497978977159,-0.05343162869704188,9.84708914214285
17.475,1765500282.5452375,1765500282545240788,-3.2281323801333533e-06,2.5961776552521205e-08,-2.990530077330686e-10,0.9999999999947892,0.0035673449845924753,-0.0020454463393753245,0.00048461619372669804,0.04624611955435836,-0.034850470225688074,9.866918040339216
17.48,1765500282.5502882,1765500282550296643,-3.2281323804157066e-06,2.5961774913384173e-08,-2.9905300773984487e-10,0.9999999999947892,-0.00033596300667877157,-0.002074414385919485,0.005199763011501278,-0.08122246545347489,-0.015970309723611964,9.798593579597624
17.485,1765500282.555378,1765500282555381274,-3.2281323806980058e-06,2.596177327417938e-08,-2.990530077533974e-10,0.9999999999947892,0.001454652310307439,-0.0039529287260931115,-0.002608669611345984,-0.01270563032776853,0.017007245887256876,9.832511978304776
17.49,1765500282.5602694,1765500282560273526,-3.228132380980369e-06,2.596177470748157e-08,-2.9905300778050245e-10,0.9999999999947892,0.003138753334705357,-0.0012081960738105294,0.005660642173804678,0.014626295447036839,0.017889141763354606,9.79642387441741
17.495,1765500282.565493,1765500282565497665,-3.228132381262607e-06,2.5961776140959957e-08,-2.990530077872787e-10,0.9999999999947892,-0.002684800373212679,0.0006267654658771596,-0.0030305998956944745,-0.03909207275123807,0.009845403100199959,9.75841008210501
17.5,1765500282.5707157,1765500282570719857,-3.228132381544792e-06,2.5961774501904246e-08,-2.9905300781438377e-10,0.9999999999947892,-1.925206530095025e-05,-0.0016871204318318525,-0.0020702061441323066,0.001906568094951212,-0.0008345548185029767,9.816771331363658
17.505,1765500282.5756829,1765500282575690654,-3.2281323818272053e-06,2.5961775935219988e-08,-2.990530078279363e-10,0.9999999999947892,-0.001745506365253808,0.001323620294439374,7.57373022477597e-05,-0.04502567542390261,-0.0180110602893372,9.7768873499223
17.51,1765500282.5807023,1765500282580707983,-3.2281323821094498e-06,2.5961774296157498e-08,-2.990530078414888e-10,0.9999999999947892,0.0024762756130258024,-0.0032082159375498814,-0.0005571389181510077,-0.007247872679078341,-0.06377686371209536,9.73348428865151
17.515,1765500282.5861094,1765500282586114120,-3.2281323793192652e-06,2.5961775729459734e-08,-2.9905300757721454e-10,0.9999999999947892,-0.0011160867657672667,0.0011167583879180191,0.001392021775323031,-0.010904681809406937,0.022596264657721823,9.776854038082385
17.52,1765500282.591185,1765500282591189984,-3.228132379601772e-06,2.59617771626535e-08,-2.990530076043196e-10,0.9999999999947892,-0.0024987125409980074,-0.0032724284491978182,0.0013459505904225932,-0.006576367043102439,-0.048036700012379176,9.84043274794555
17.525,1765500282.5962222,1765500282596225954,-3.2281323798838453e-06,2.596177552373332e-08,-2.990530076043196e-10,0.9999999999947892,0.00017503125890393136,-0.0012600833898369216,-0.00022740793841019889,0.03283439277453705,0.005522047083932592,9.825006028727683
