time,orientation_x,orientation_y,orientation_z,orientation_w,angular_velocity_x,angular_velocity_y,angular_velocity_z,linear_acceleration_x,linear_acceleration_y,linear_acceleration_z
0.0,-3.228132379919941e-06,2.5961774915101205e-08,-2.9905301183270807e-10,0.9999999999947892,-0.0059373062847408,-0.0022272607385085,0.0016801412714881,0.0402956981347907,-0.0033122173295827,9.78994224883683
0.01,-3.2281323804836514e-06,2.596177471479382e-08,-2.9905301185981307e-10,0.9999999999947892,0.0012654827081656495,0.00014577355509533263,0.0032116298904460543,0.05071574940765311,-0.03735811050217741,9.819766552759573
0.02,-3.228132378048452e-06,2.5961777460249e-08,-2.990530116160561e-10,0.9999999999947892,-0.0047169463749522685,-0.0019290344068279269,-0.003139040329575981,-0.03485165031453872,-0.00932652949497452,9.83112594973792
0.03,-3.2281323815828566e-06,2.5961774476749925e-08,-2.990530119313952e-10,0.9999999999947892,0.001337553584075511,0.005268620721678258,5.132368110794504e-05,0.045672409137830355,-0.01314009239919663,9.87253979996585
0.04,-3.2281323821550972e-06,2.5961773974373146e-08,-2.9905301198067155e-10,0.9999999999947892,-0.0039501079016195486,0.00033336878658171785,-0.002593272011404504,-0.03864045116506635,-0.07756664960511489,9.820074821396153
0.05,-3.2281323796394056e-06,2.5961774066477024e-08,-2.9905301172957524e-10,0.9999999999947892,-0.0013580771425871878,0.002551372337011132,-0.0011713788050814063,-0.02341289679558428,0.06164185962304135,9.82499454639217
0.06,-3.2281323801940406e-06,2.5961773918633163e-08,-2.99053011749425e-10,0.9999999999947892,0.0020851797509277323,-0.0017131210629761483,-0.0015477664296368464,0.058781319034268864,-0.02662357382144055,9.836588684645518
0.07,-3.2281323812643133e-06,2.59617757968908e-08,-2.9905301183605934e-10,0.9999999999947892,-0.0015830152285736157,0.0008652614006311767,-0.0008681252472980449,-0.018395137514904646,0.015585587799602844,9.880638797729146
0.08,-3.2281323812873687e-06,2.5961773714562988e-08,-2.990530118117898e-10,0.9999999999947892,0.002199889721227423,0.0012658564143485523,-0.0017854531866221283,0.01806685143203908,0.007324079336901851,9.80936043874719
0.09,-3.2281323796691e-06,2.5961775718233053e-08,-2.990530116493634e-10,0.9999999999947892,7.824497097974874e-05,2.8494371740138836e-05,8.548015750087668e-05,-0.037204038404396525,0.015266814037623477,9.777273813862935
0.1,-3.2281323793386326e-06,2.5961775512130072e-08,-2.9905301161474107e-10,0.9999999999947892,0.0061444795743502804,0.001027325730060955,0.0005419873569006428,-0.02363589047602964,0.02555812391270801,9.849109287449272
0.11,-3.228132382974117e-06,2.596177313872546e-08,-2.990530119235501e-10,0.9999999999947892,-0.0033042111448166028,-0.0008174503670735851,0.0031781266855818945,0.018430715499866804,0.019883145501178506,9.806191577905125
0.12,-3.2281323804687025e-06,2.596177599068222e-08,-2.9905301167295096e-10,0.9999999999947892,-0.00028587409878119176,6.614243906012045e-05,-0.0018145776743007163,-0.01847996700265915,-0.019304674980631216,9.832252395915763
0.13,-3.2281323810187682e-06,2.5961772796770705e-08,-2.9905301170843457e-10,0.9999999999947892,-0.0007621135651048227,4.6116959327851224e-05,0.0012045281752255323,-0.044297622188412725,0.022628694740028543,9.737299466032576
0.14,-3.228132380292505e-06,2.5961775784590796e-08,-2.990530116061955e-10,0.9999999999947892,-0.0025976667627679107,-0.0018255375349320452,-0.0012720662509429124,-0.029489321612787812,-0.009698104784534506,9.792430373058556
0.15,-3.2281323821288015e-06,2.5961774317294875e-08,-2.9905301177975295e-10,0.9999999999947892,-0.002042680167716461,0.00045997381112122316,0.0029124618082784367,-0.029549742344843,-0.05909535456003015,9.726505348192001
0.16,-3.228132380984831e-06,2.5961774053847498e-08,-2.9905301165213956e-10,0.9999999999947892,-0.001238131987900473,-0.0016339198122776956,0.0004850612093484259,0.0015278971793295376,0.0622175098864998,9.829288791753081
0.17,-3.228132380177748e-06,2.596177520205926e-08,-2.9905301154516024e-10,0.9999999999947892,0.0025549315559597378,-0.003545039994938374,0.0013067743106323802,-0.05305892911626509,0.055283034646330775,9.825239746633496
0.18,-3.228132380716233e-06,2.5961774980799344e-08,-2.9905301158124827e-10,0.9999999999947892,0.00048492597488598204,-0.0011604351680694514,0.002389783631400402,-0.03414656369219045,-0.040910440303036366,9.816021496160069
0.19,-3.2281323812864794e-06,2.5961774909155133e-08,-2.9905301159878656e-10,0.9999999999947892,0.0028340440649865287,0.0018013783058488963,0.001234946572208833,-0.009621297582579898,0.029044728268441847,9.796188483650772
0.2,-3.2281323818474934e-06,2.5961774724223373e-08,-2.990530116429727e-10,0.9999999999947892,0.00038827394360853903,0.002926645783301949,0.0016225360873602386,0.01705805578479148,0.022616366157640535,9.808604872802144
0.21,-3.228132379321936e-06,2.59617759046015e-08,-2.9905301137869836e-10,0.9999999999947892,-0.0018821017100749673,0.0012067806241193165,0.0012886830696881234,-0.02465611775670713,0.04390181611447957,9.772579854360535
0.22,-3.2281323798755745e-06,2.596177447896555e-08,-2.990530114025227e-10,0.9999999999947892,-0.001973055002361217,-0.0005559627310302103,0.0011697216173782846,0.014386436714509215,0.018886438928960615,9.74522823051529
0.23,-3.2281323825474823e-06,2.5961775335225504e-08,-2.990530116523796e-10,0.9999999999947892,0.0009349850783960168,0.005049757458725333,-0.0006210915616313602,0.04929273631960242,0.0012009781963951763,9.793393173295408
0.24,-3.228132380998387e-06,2.596177519974687e-08,-2.990530114832311e-10,0.9999999999947892,0.0015994764405390998,0.002463926398737405,2.861253406965386e-06,0.03132317762738115,-0.030295918050332986,9.810806579829677
0.25,-3.2281323805519637e-06,2.5961774950559725e-08,-2.9905301142357425e-10,0.9999999999947892,0.0007638868925706338,0.003928821475608143,0.0036008437079546106,0.05144621595399252,0.003643786594187258,9.776440242283575
0.26,-3.2281323790319174e-06,2.596177467015002e-08,-2.990530112672191e-10,0.9999999999947892,-0.000861555958279683,0.0024389213249048063,0.002926292585970311,-0.06828950836835923,0.08309926635158721,9.763539417305854
0.27,-3.2281323826593656e-06,2.5961773677354114e-08,-2.99053011600426e-10,0.9999999999947892,-0.002852140715009829,0.003931130868085536,0.0017623887806594621,0.029070956827406,0.019697483954341885,9.76260303245654
0.28,-3.228132380122965e-06,2.5961776709777455e-08,-2.990530113408719e-10,0.9999999999947892,-0.0014599393800843051,0.002665571759202721,-0.002777576671448982,0.034755094187735466,-0.006862896314464753,9.798537726138594
0.29,-3.22813238068591e-06,2.596177385133118e-08,-2.9905301136786234e-10,0.9999999999947892,0.0040060472368234614,0.002456791946542044,0.003828267501209671,-0.025276923521222617,-0.021835274486298496,9.842614297674393
0.3,-3.228132378529382e-06,2.596177633641107e-08,-2.9905301115136416e-10,0.9999999999947892,0.0014631085929588373,-0.0005154169022004,0.0015300242667450222,-0.02917470671062456,-0.05059251809133755,9.761898742076795
0.31,-3.2281323817946525e-06,2.5961776220328654e-08,-2.9905301146001357e-10,0.9999999999947892,0.0005793712729638644,-0.0023799278759473884,0.00030043613125720384,0.0045663915883227685,0.02078694339506095,9.819467824239231
0.32,-3.2281323820779817e-06,2.5961773468721363e-08,-2.990530114492133e-10,0.9999999999947892,0.002787833042695266,0.0014940575175137302,0.0016269993141143763,-0.030753491504245,-0.023534420272822768,9.77229930377342
0.33,-3.2281323798444972e-06,2.596177584861207e-08,-2.9905301122384973e-10,0.9999999999947892,-0.002521161779870393,-0.003053362324286133,0.0001373546592288356,0.00023646996980510978,0.048891213231991276,9.816842103159168
0.34,-3.2281323803940975e-06,2.5961772657556698e-08,-2.990530112699491e-10,0.9999999999947892,0.00019104233512755547,0.0013288568455895114,0.0065499957596762875,0.004957443021203049,-0.017220384305959,9.808862385318145
0.35000000000000003,-3.228132380941999e-06,2.596177538971345e-08,-2.990530112828086e-10,0.9999999999947892,-0.0019078212787124304,-0.004022159515924785,2.1334990497874715e-06,-0.010466409992630573,-0.055231796065047224,9.798003610543073
0.36,-3.2281323815150804e-06,2.5961775227705815e-08,-2.9905301133035017e-10,0.9999999999947892,0.0029979205776510492,0.0010709233998812634,0.003114938987070509,-0.02989947572311406,-0.01512619425728913,9.795073050235684
0.37,-3.228132379145021e-06,2.5961775022021946e-08,-2.990530110991705e-10,0.9999999999947892,-0.0015620416880798404,0.0004035208944052249,-0.0003835874299276381,0.029925905721324576,0.07546725061604997,9.806484702796112
0.38,-3.228132379550609e-06,2.5961775077370642e-08,-2.9905301111279686e-10,0.9999999999947892,-0.00123008788392996,0.0037794563359494215,-0.0024781554710118763,-0.03932724211859134,-0.014119409025073304,9.81596210917241
0.39,-3.2281323827724373e-06,2.5961774482808967e-08,-2.9905301143091403e-10,0.9999999999947892,-0.0011119253572262895,-0.002642723384946722,-2.785072293349372e-05,0.004986199005165642,-0.06561547936130427,9.873844132991605
0.4,-3.2281323806510475e-06,2.5961774832707984e-08,-2.990530112168319e-10,0.9999999999947892,0.0014864704115806781,-0.0007025600368681776,0.001833124865363963,-0.06721019027973392,0.007350013797036371,9.782378734012996
0.41000000000000003,-3.2281323812103984e-06,2.5961774657629745e-08,-2.9905301125861236e-10,0.9999999999947892,0.001147167103658988,-0.0002988401042034692,0.0003859291996742061,-0.02257950740844496,-0.05476019189142395,9.826369520043343
0.42,-3.228132379509995e-06,2.5961775935792572e-08,-2.9905301107604026e-10,0.9999999999947892,0.0004159890728075281,-0.00182857762074467,0.0011521453841163132,0.0045702599734259025,-0.04457382768863202,9.846996962630516
0.43,-3.2281323815213747e-06,2.5961774284842716e-08,-2.9905301125391666e-10,0.9999999999947892,-0.00038536251337841724,0.0031194253056868967,0.0004625112429018451,0.02142872795678335,0.03999570975851915,9.779961763922788
0.44,-3.2281323806737116e-06,2.596177632094924e-08,-2.9905301114594385e-10,0.9999999999947892,0.004080024452404649,-0.00043483724087393396,-0.002953899593750041,0.00940659668908559,-0.01277206933135049,9.802209218062773
0.45,-3.228132380371071e-06,2.5961773980778564e-08,-2.990530110964037e-10,0.9999999999947892,-0.002016851415890495,0.00012949395620163345,-0.001136177355575856,-0.008371528087119183,0.05980811849589415,9.815473120374314
0.46,-3.228132380921573e-06,2.5961773857603973e-08,-2.9905301112607673e-10,0.9999999999947892,0.0008451345215367138,0.0018910610221722676,0.0013215438520499606,-0.005669509414838411,0.010948068899102485,9.836505592818655
0.47000000000000003,-3.2281323802022535e-06,2.5961775506960673e-08,-2.9905301103259663e-10,0.9999999999947892,-0.0009970760881352094,-0.0006559548757942272,-0.0006846568139070586,0.05710050050325075,-0.01729241527731812,9.788190686121457
0.48,-3.228132382026665e-06,2.5961773585623934e-08,-2.990530111966846e-10,0.9999999999947892,0.0006348886462357019,-0.00012732610976860553,0.0006468505924409234,-0.04253524820959582,0.0008772044595781736,9.786096685314504
0.49,-3.228132379518714e-06,2.5961776452599448e-08,-2.9905301094501754e-10,0.9999999999947892,-0.0009212712668726408,-0.00029797043684452686,-0.001219349401392024,0.009587589750836088,-0.0450979316971944,9.769743640449652
0.5,-3.2281323800610632e-06,2.5961774704026077e-08,-2.990530109776996e-10,0.9999999999947892,-0.0010298286501268408,-0.0015892704236650933,0.0011780571114148287,0.00028527602409972666,-0.0489172436127512,9.81262692405354
0.51,-3.228132380605795e-06,2.596177439718025e-08,-2.990530110206108e-10,0.9999999999947892,0.0025293287346455397,0.0004612876976035076,0.002376145334200339,0.019973369430776485,0.003936617231320013,9.799900363029838
0.52,-3.2281323811524576e-06,2.5961776184446357e-08,-2.990530110599788e-10,0.9999999999947892,-0.004276452619588771,0.0035325641305523677,-0.00018312747027343927,0.011047985690666113,-0.01797322075092519,9.794076836070538
0.53,-3.228132381717321e-06,2.5961773896216367e-08,-2.990530110960675e-10,0.9999999999947892,-0.0034369887882080693,-0.000423620730814435,0.000783858565983992,-0.028297653228185813,0.0035107494065150847,9.815583577894394
0.54,-3.228132379210984e-06,2.596177576279918e-08,-2.9905301083193347e-10,0.9999999999947892,-0.0010659789233507984,0.0003570456753960367,0.0038430208768745304,0.04627065095607588,0.04066977829132998,9.791415745111202
0.55,-3.2281323807662076e-06,2.596177556536001e-08,-2.990530109577823e-10,0.9999999999947892,0.0011867073178999906,0.0009978924478867568,0.002953493099114228,-0.011353211857545998,-0.03324566766265404,9.776248480035354
0.56,-3.2281323825739296e-06,2.5961773199660093e-08,-2.9905301110607695e-10,0.9999999999947892,0.001141748647984503,0.0005098770323781798,-0.002930185067429765,0.02748396046214973,-0.0028477445500759138,9.716061861151767
0.5700000000000001,-3.228132380856644e-06,2.5961775424616404e-08,-2.990530109232575e-10,0.9999999999947892,-0.0034667809710279495,-0.001691618776352587,-0.0011657339239783556,-0.009300992492357605,0.0002326048201612245,9.764366546939799
0.58,-3.2281323811129486e-06,2.5961772830814742e-08,-2.9905301092680266e-10,0.9999999999947892,-0.0009612147580237419,0.0009275903534031987,-0.0018594935655260186,0.05550339022762177,0.006161690710658267,9.806082327185356
0.59,-3.2281323791677624e-06,2.5961775125455557e-08,-2.990530107226793e-10,0.9999999999947892,-0.0008639378809827721,-7.331225541504837e-05,0.0007708946593974788,0.013486363351403342,-0.015227222969249592,9.788853145559756
0.6,-3.228132382299645e-06,2.5961775171764616e-08,-2.990530110120574e-10,0.9999999999947892,0.0041197130450570845,-0.0010221925217599199,0.001171716881883996,0.06070921522041811,0.01717462286439175,9.785835503239879
0.61,-3.22813237997849e-06,2.596177497347184e-08,-2.9905301078004076e-10,0.9999999999947892,0.0028408677348024315,0.00239588451965006,0.0017743965272077715,0.02793192135645809,-0.02678640354810679,9.780033140010714
0.62,-3.228132380583471e-06,2.5961774533524542e-08,-2.990530108104907e-10,0.9999999999947892,0.0001822210536068259,0.0023534538156949696,0.0014895221373230952,0.017936010486631227,-0.04664356756266481,9.844583038778268
0.63,-3.228132378066602e-06,2.5961777515140904e-08,-2.99053010546304e-10,0.9999999999947892,-0.00619414906718365,-0.0035527757952042234,-0.006705886600787257,-0.052666514346612556,0.007893446225189202,9.782722587745356
0.64,-3.228132381666986e-06,2.596177438668283e-08,-2.99053010869289e-10,0.9999999999947892,0.0025481830252871507,0.0009199517289762166,0.004177735091913314,-0.01380217231548583,-0.036372902074134635,9.814945514662488
0.65,-3.228132382239032e-06,2.596177394883515e-08,-2.990530109103022e-10,0.9999999999947892,0.0010881519539847108,0.0026441804809724176,0.002411036311120191,-0.001248886621425473,-0.0037337336110624723,9.785657028405481
0.66,-3.228132379724478e-06,2.5961773970732635e-08,-2.9905301065868427e-10,0.9999999999947892,0.00013669189757272582,-0.00015765269723696704,-0.002240299917724481,-0.0073898121322071506,-0.014806394357938346,9.759523915081438
0.67,-3.228132380290294e-06,2.596177375806722e-08,-2.9905301069265197e-10,0.9999999999947892,-0.0005312088906796655,-0.00217269997040372,-0.003766694237984324,-0.02997803734129356,-0.008773525752950592,9.809844865054835
0.68,-3.228132380849273e-06,2.5961776347168718e-08,-2.990530107193444e-10,0.9999999999947892,0.0009244409609816335,3.265197523116218e-05,0.0016741896643758206,0.07944448064122206,-0.03937635240878026,9.744289706679949
0.6900000000000001,-3.228132381386483e-06,2.5961773537907557e-08,-2.9905301076080276e-10,0.9999999999947892,-0.0005148657854336016,0.0021795188751975105,0.0005765542020606169,-0.04411860250276242,0.01611027730769798,9.812047473889633
0.7000000000000001,-3.2281323795995057e-06,2.5961775739130428e-08,-2.990530105723911e-10,0.9999999999947892,-0.0016768812029303725,-0.0016166931911518279,0.002211470360007374,-0.02508643327615514,0.04271375038915782,9.736426925403531
0.71,-3.2281323794329904e-06,2.596177553937499e-08,-2.9905301054045834e-10,0.9999999999947892,-0.0004414833052468854,0.002305143201352463,2.5619495196363244e-05,-0.02823058488253543,0.017542858510714236,9.763927490670701
0.72,-3.228132383065755e-06,2.5961773005621538e-08,-2.9905301087727067e-10,0.9999999999947892,0.0007013094092518301,-0.0012859720236836542,-0.0021523594243312147,0.05168188808414724,0.03614976511919818,9.800773081778914
0.73,-3.228132380541341e-06,2.5961775967897457e-08,-2.990530106082893e-10,0.9999999999947892,-0.0007952053848169409,0.0006018889986369252,-0.0032907555315883235,0.016307565347929688,0.009843095345625844,9.847500466298012
0.74,-3.2281323810936155e-06,2.5961774753726337e-08,-2.990530106241507e-10,0.9999999999947892,0.0019789203404896403,-0.0020467972564316077,-0.0008288993626293589,-0.009832152928328454,-0.060175279236662355,9.814227329359028
0.75,-3.2281323785756796e-06,2.5961775686193877e-08,-2.9905301035854747e-10,0.9999999999947892,-0.001076595768849898,0.000818422351331384,0.002038314962263592,-0.021966823471886707,-0.04936583578422554,9.779378168624213
0.76,-3.2281323821920393e-06,2.5961774186614936e-08,-2.9905301069117716e-10,0.9999999999947892,-4.3571256082285646e-05,-0.000468899790672678,0.00013817307476155064,0.02822229756018079,-0.004161629836356373,9.812502523924044
0.77,-3.2281323809511543e-06,2.5961774056346827e-08,-2.990530105635727e-10,0.9999999999947892,0.00012726719290612198,-0.0018823581063066787,0.0024570246867251897,-0.01019684991684825,-0.003629670330323135,9.841769366230219
0.78,-3.2281323802295754e-06,2.596177530026507e-08,-2.9905301046710097e-10,0.9999999999947892,-0.004428537278780176,-0.0013897968435312756,-0.0007581832525308812,-0.00967666500547516,-0.027783871437579002,9.809880268318475
0.79,-3.2281323794286447e-06,2.596177478573198e-08,-2.9905301037128693e-10,0.9999999999947892,0.0003233457822342261,0.004533322612471144,-0.0006432511915776544,-0.04191276215892489,0.01229974733277582,9.796287251869922
0.8,-3.2281323813377066e-06,2.5961775011340734e-08,-2.99053010545125e-10,0.9999999999947892,-0.001087418259183125,-0.00099541082316976,0.001718555615393259,-0.004044408056693932,-0.021951037277943192,9.873516035494962
0.81,-3.2281323818849306e-06,2.5961774906740656e-08,-2.990530105700937e-10,0.9999999999947892,0.0007799011522465931,-0.002212088527466177,-1.2630000464224273e-05,0.0059937479619899675,0.001393477033035339,9.810391573506504
0.8200000000000001,-3.2281323793870546e-06,2.5961775782846722e-08,-2.990530103063022e-10,0.9999999999947892,-0.0025904130544138373,-0.0010553736907649445,0.00017811188974152926,0.03965819152602176,-0.03476372774762569,9.792182622424745
0.8300000000000001,-3.2281323799339905e-06,2.5961774539149347e-08,-2.9905301033256123e-10,0.9999999999947892,-0.00428615674570539,-0.0014563748884828835,-0.0004902004742847231,-0.02404152298476039,-0.025777211014772622,9.799579350718766
0.84,-3.2281323825651455e-06,2.596177531136743e-08,-2.9905301056437467e-10,0.9999999999947892,-0.003891235334648434,-0.001534761382303405,-0.000928116354464458,-0.0024577214031150617,0.025039541928933075,9.784039044409635
0.85,-3.2281323810682566e-06,2.5961775102004954e-08,-2.990530104117723e-10,0.9999999999947892,0.0016667385410891983,0.002828559116904279,0.0016041294720972907,0.0018650914732375409,-0.013557314756540467,9.801975447441867
0.86,-3.228132380800652e-06,2.5961774808005066e-08,-2.990530103698907e-10,0.9999999999947892,0.0024649883510433185,-0.0027000766851535125,-0.0010131505570943372,-0.0012270084893460978,-0.003773916851779291,9.855025566199961
0.87,-3.2281323791010056e-06,2.5961774568804143e-08,-2.9905301018585537e-10,0.9999999999947892,-0.0012179200464304486,-0.0006970866716831941,-0.0012952279703473321,0.027283237687052295,0.05992140683295904,9.778349055411717
0.88,-3.228132382707217e-06,2.596177379927181e-08,-2.990530105275817e-10,0.9999999999947892,0.002237664607696418,0.0011699582724481398,-0.0011112686827850122,-0.04079458852945742,0.015567751433106828,9.768111491054295
0.89,-3.2281323802051097e-06,2.596177663218381e-08,-2.9905301028771997e-10,0.9999999999947892,-0.0016828676255070205,0.00024430391395665506,0.0007165997612112726,-0.05083982715472638,0.043784302028847186,9.761368089593288
0.9,-3.228132380755874e-06,2.5961773754358293e-08,-2.9905301031623863e-10,0.9999999999947892,0.0049475038445335965,-0.00019796981688496285,-9.038755084579948e-05,0.08818408909353101,-0.0801016774454987,9.835990263154097
0.91,-3.228132378441877e-06,2.5961776362445377e-08,-2.990530100708433e-10,0.9999999999947892,-0.0023308111086225076,0.0021786800676056083,-0.0013399887847078045,0.0002919080361831958,0.06284190881007566,9.77483617397092
0.92,-3.2281323818830176e-06,2.5961776107463824e-08,-2.9905301038258766e-10,0.9999999999947892,0.0012478550905129643,-0.0033307014759128314,0.0006360376841346268,-0.01622004670646981,-0.026962609025902418,9.78968888469527
0.93,-3.2281323822462414e-06,2.5961773268649196e-08,-2.990530103796582e-10,0.9999999999947892,-0.001108143664590088,0.0005903272882026002,0.004805621374062727,-0.018290883264692068,0.057227256550380065,9.771882760634544
0.9400000000000001,-3.22813237991499e-06,2.5961775838220452e-08,-2.990530101522617e-10,0.9999999999947892,-0.0041192509341430065,0.0035425568415294556,-0.006055873228856101,0.03101026704976824,-0.010821277996341102,9.799497298840839
0.9500000000000001,-3.228132380475316e-06,2.596177258526384e-08,-2.990530101926609e-10,0.9999999999947892,0.0007152994343610228,-0.0006533193091979824,-0.0007442207285892578,0.021837312101636353,0.056282114583291284,9.797251790244706
0.96,-3.2281323810219374e-06,2.5961775343228916e-08,-2.9905301023162674e-10,0.9999999999947892,0.0021201128612662046,-0.0031936547089847682,0.004514033040097536,0.009072564955236844,-0.04049146621443737,9.83024070539492
0.97,-3.228132381588791e-06,2.5961775149002594e-08,-2.9905301027291887e-10,0.9999999999947892,-0.0006434991369059005,-0.0024957326284608438,0.0009534474573837579,-0.02348793427468623,0.05413194974497132,9.784235584549757
0.98,-3.2281323793854532e-06,2.5961774883747354e-08,-2.9905301004457463e-10,0.9999999999947892,-0.0023202236755052383,0.0018063873654369455,0.0026235356793028546,0.002224295632584838,-0.027178572637478186,9.837217279762179
0.99,-3.2281323796052e-06,2.596177516004107e-08,-2.990530100356154e-10,0.9999999999947892,0.0008783199150680837,-0.0006417297826345321,-0.0007154572043251862,-0.057029613578445444,-0.04626954980724759,9.769904974976244
1.0,-3.2281323826326718e-06,2.5961774334678393e-08,-2.990530103056864e-10,0.9999999999947892,-0.0014898688087826785,-5.6900083504140804e-05,-0.0018409294603138702,-0.01975289862617256,-0.052428030120431804,9.719605092960903
1.01,-3.2281323806909737e-06,2.5961775000371664e-08,-2.9905301010184236e-10,0.9999999999947892,0.0005807675643777731,-0.0017530658965782845,-0.002266655840719122,-0.057455114440808905,0.0032699181172352217,9.83725073519735
1.02,-3.2281323812794087e-06,2.596177465630887e-08,-2.990530101466393e-10,0.9999999999947892,0.0004734096225861217,0.0009942712179452557,0.0002027953301783922,-0.04159306390509846,0.05569044441574413,9.805040164790856
1.03,-3.2281323795516335e-06,2.5961775939853057e-08,-2.990530099714579e-10,0.9999999999947892,0.000740608222030813,0.0035935177855807715,0.0024480646257910247,0.010124453059417789,0.006562459410477665,9.818244173458371
1.04,-3.2281323815077735e-06,2.596177427459251e-08,-2.9905301013587407e-10,0.9999999999947892,-0.0008102156400003705,0.0005031621119023816,0.00022812735997867735,-0.008999790755883051,0.04519760787932373,9.797510728744665
1.05,-3.228132380899263e-06,2.5961776190094945e-08,-2.9905301003836074e-10,0.9999999999947892,-0.0026811688528207813,-0.0008432599030271128,-0.00013721230149398283,-0.04343618844465164,0.006298250247167863,9.812108121808333
1.06,-3.228132380434681e-06,2.5961774009712207e-08,-2.990530099860144e-10,0.9999999999947892,0.005898216672941742,8.884719197153456e-06,0.002333264125994742,0.010680638154373409,0.01743709793881602,9.75183341467837
1.07,-3.228132380981467e-06,2.5961773907948673e-08,-2.990530100046222e-10,0.9999999999947892,0.0012747086884209824,0.002700536381425609,-0.0005339854477287585,0.004575268100482432,-0.05284023274904821,9.79358626199896
1.08,-3.228132380216803e-06,2.5961775424600334e-08,-2.9905300992690007e-10,0.9999999999947892,-0.0031726339684682962,0.0014067815206219479,-0.0008036668501847357,-0.014357400605893453,-0.025335025355193296,9.804455436263872
1.09,-3.228132382108024e-06,2.5961773511333288e-08,-2.9905301010909404e-10,0.9999999999947892,0.0007793695707170928,-0.001453124948424582,0.00048203602519789057,-0.02849362357714555,-0.025428171936231918,9.75719417171904
1.1,-3.2281323795982474e-06,2.5961776388894478e-08,-2.99053009844145e-10,0.9999999999947892,-0.0030685653877985837,-0.002025876481767408,0.0007301648332727664,0.014272015245480017,-0.015599110367862304,9.849199553362563
1.11,-3.228132380161991e-06,2.596177476455103e-08,-2.990530098690762e-10,0.9999999999947892,-0.002970263280179294,0.00022923561622909764,0.0009907888030794344,0.009062197853370344,0.022520932815742647,9.77429743456663
1.12,-3.2281323807088025e-06,2.5961774468492062e-08,-2.9905300992144223e-10,0.9999999999947892,-0.0017916265636096088,-0.002002012468575411,0.0014400110700842478,-0.008393403883228269,-0.011247141672346457,9.826874158989833
1.1300000000000001,-3.2281323812583295e-06,2.5961775967403425e-08,-2.990530099449799e-10,0.9999999999947892,0.002871848231194222,0.004331850790644384,-0.0005880588143803692,0.024543663495403774,0.010116656728500649,9.809991309191464
1.1400000000000001,-3.228132381807144e-06,2.5961773901023477e-08,-2.9905300997911905e-10,0.9999999999947892,-0.0010701880445633442,0.0005198021301550642,-0.00025716347726036765,-0.02827487122252531,-0.019825097303921475,9.795615298716886
1.1500000000000001,-3.2281323792954767e-06,2.596177566971701e-08,-2.990530097076989e-10,0.9999999999947892,0.0017447777872349028,0.001723103501042984,-0.0003731206021450504,-0.02897310468861173,0.0262934500505327,9.827963175843541
1.16,-3.228132380731354e-06,2.5961775565222686e-08,-2.990530098270406e-10,0.9999999999947892,-0.0042246424176931785,0.00038726032772705226,0.002006324016335094,0.022490334340324093,0.011752296761226286,9.79657376414491
1.17,-3.2281323804110776e-06,2.5961775337229544e-08,-2.990530097877082e-10,0.9999999999947892,0.0003583073907716245,-0.001123213588937598,-0.00011404341885147681,-0.012990158147138647,0.014685501200251465,9.809645119913998
1.18,-3.228132380941453e-06,2.5961775329963788e-08,-2.990530098226206e-10,0.9999999999947892,-0.0012973127274720018,0.0017958541619771734,-0.00017467902783619056,0.016384425127689603,-0.02188938298343723,9.813420766434335
1.19,-3.228132380886985e-06,2.5961773266444016e-08,-2.9905300978808396e-10,0.9999999999947892,-0.0010786189847459158,-3.486298897977392e-05,0.0020527345353629337,0.03129868951515531,0.02149138603854737,9.765133172993638
1.2,-3.228132379532735e-06,2.596177492996453e-08,-2.990530096386179e-10,0.9999999999947892,-0.002197126102176623,-0.0029898809275725234,0.0005614867883958282,0.015994328135472365,-0.006888685598666608,9.77898729288915
1.21,-3.2281323823459045e-06,2.596177513273485e-08,-2.9905300989809893e-10,0.9999999999947892,-0.0024535054675296573,-0.0006440898897816414,0.002959193138605322,-0.08077855573464159,0.063944109241182,9.785209384773419
1.22,-3.2281323801108874e-06,2.5961774982487345e-08,-2.9905300967611953e-10,0.9999999999947892,0.002556861620020792,0.0025876556654832105,0.0006990801980450116,-0.006843455006848597,-0.06004475245542551,9.789754227579886
1.23,-3.228132380655433e-06,2.5961774513047557e-08,-2.9905300969960593e-10,0.9999999999947892,0.0009857227489189447,0.0010183033541094396,-0.0020806184472664723,0.07057438642105884,0.03805569127339499,9.794091221050941
1.24,-3.2281323781418085e-06,2.5961777461183707e-08,-2.9905300945507056e-10,0.9999999999947892,0.0027571897719160473,-0.0001360983474806587,0.0007403197344766775,0.029000280924470493,0.03210755769988881,9.847449125086076
1.25,-3.2281323817618728e-06,2.5961774233383172e-08,-2.9905300977912094e-10,0.9999999999947892,0.000907715860854109,-0.0006642709829595677,0.0006612292502523699,-0.008923714788175231,0.023311887112266387,9.796561005487016
1.26,-3.228132382321878e-06,2.5961773918102305e-08,-2.9905300979952826e-10,0.9999999999947892,-0.003191689188111594,-0.001385963818813888,0.0028654640239994264,-0.03932862372976185,0.09096778665710817,9.82251448403957
1.27,-3.228132379818705e-06,2.5961773821348015e-08,-2.990530095617212e-10,0.9999999999947892,-0.0018994151773017208,2.8038255150809963e-05,-2.19268361095436e-05,-0.023279349875125862,0.07304740147886471,9.77712203783515
1.28,-3.228132380363595e-06,2.5961773730051945e-08,-2.990530095891038e-10,0.9999999999947892,-0.001405754435552758,-0.003051334383832296,0.0010476351487910746,-0.003450619098449889,-0.02062756601297646,9.789403005954629
1.29,-3.2281323809317017e-06,2.596177631499494e-08,-2.990530096168699e-10,0.9999999999947892,-0.0006083105647854827,-0.004575175356424486,-0.0033141903991995266,0.04271029336783175,-0.021467756265983032,9.82406158536732
1.3,-3.228132381486538e-06,2.5961773354457803e-08,-2.99053009654291e-10,0.9999999999947892,0.0005287432243126582,-0.0015288301149874216,-0.0014916908457502476,-0.04052420705579382,-0.01243331695439538,9.796493821466072
1.31,-3.22813237951012e-06,2.596177576964891e-08,-2.990530094316742e-10,0.9999999999947892,-0.0015709211978557577,0.0016925114083681694,-0.0008455903508918143,0.015044676694363365,-0.03382738475024686,9.843200759128575
1.32,-3.2281323795242735e-06,2.5961775551967828e-08,-2.990530094072575e-10,0.9999999999947892,0.0036173486254648408,-6.06861801383282e-05,-0.00015595231239599254,0.07801746251697539,-0.025871890083594674,9.821861579850019
1.33,-3.228132383150904e-06,2.5961772907827646e-08,-2.990530097410741e-10,0.9999999999947892,-0.0008091907892893838,-0.004208352947851639,0.00011870385431805765,-0.04703308434368163,0.012806395700733685,9.825166813636008
1.34,-3.2281323806340687e-06,2.5961775826091403e-08,-2.9905300946101577e-10,0.9999999999947892,0.0010471231388184728,-0.0019026071311794913,-0.0013472404300411379,-0.024408499213685996,-0.04552132943022212,9.841599286931537
1.35,-3.2281323811949325e-06,2.5961772569510313e-08,-2.9905300948812087e-10,0.9999999999947892,0.0032863139662178877,0.0007838879364786902,0.0004622295561644543,-0.039407164594969867,-0.03768916977561665,9.773635860701926
1.36,-3.22813238090031e-06,2.5961775453333654e-08,-2.990530094148104e-10,0.9999999999947892,0.0005528630998594443,-0.0009169588065168669,-0.0009380417904713001,0.009833544804022258,0.018717780699834465,9.851314107648115
1.37,-3.2281323823181646e-06,2.5961774376378202e-08,-2.9905300955964144e-10,0.9999999999947892,-0.0025023821437152355,-0.0044111496981216625,-0.0014509797639625094,0.01737408167245854,0.004424958776772389,9.79872458374331
1.3800000000000001,-3.2281323809149444e-06,2.596177405939463e-08,-2.9905300941380883e-10,0.9999999999947892,-0.0017152983748002844,0.0009144797799300047,0.000676862115621228,-0.023887304694822305,-0.008169136007393277,9.813933057295685
1.3900000000000001,-3.228132380327182e-06,2.59617751296606e-08,-2.9905300932859294e-10,0.9999999999947892,0.0026502215275771646,0.0007991621067920637,0.00039240507007017077,0.03859255782452705,0.03052520786496367,9.790470677862926
1.4000000000000001,-3.228132380888352e-06,2.596177512707222e-08,-2.990530093534026e-10,0.9999999999947892,0.00029572127045819695,0.0012551352194160102,-0.0015172646411626012,-0.018410558857173916,-0.025434116569407667,9.829286560207317
1.41,-3.2281323814494807e-06,2.596177475807282e-08,-2.9905300939373677e-10,0.9999999999947892,-0.0009030376225836859,-0.0016016508807316409,-0.00017671260180664432,0.01024343932611971,-0.014585081638931439,9.83563847151147
1.42,-3.2281323820173993e-06,2.5961774533611757e-08,-2.990530094307207e-10,0.9999999999947892,0.0032797728305720532,-0.0004358736591108226,0.0031933128035687777,0.022623206510743815,-0.059927048087063034,9.805867714559858
1.43,-3.2281323795085843e-06,2.596177594894921e-08,-2.9905300915643385e-10,0.9999999999947892,-0.0034323259032917855,-0.002264740517484832,-0.0007667192863003202,0.00207498664857015,-0.02040650984359932,9.793282414894806
1.44,-3.2281323816333063e-06,2.5961774154730088e-08,-2.990530093419508e-10,0.9999999999947892,0.0015297376188117232,0.002944588997604488,0.0006566735461539956,0.02473509041637366,-0.003985315968427917,9.848625571971427
1.45,-3.2281323806202337e-06,2.5961775449286874e-08,-2.990530092332844e-10,0.9999999999947892,0.000443725174468022,0.0009178567474806762,-0.0002838608061185554,-0.017445671954873537,0.060624958231535034,9.753700139177866
1.46,-3.2281323811597158e-06,2.5961773962512124e-08,-2.9905300928145993e-10,0.9999999999947892,-0.003369280654643328,-0.00034511793638345,-0.001028315154946221,-0.047034124461797056,0.004912752486918304,9.798581729735083
1.47,-3.2281323805804143e-06,2.5961774905445016e-08,-2.9905300919927855e-10,0.9999999999947892,0.0017774264926160867,-0.00016526464437430558,0.0009903835670563251,-0.0014740578283852536,-0.002297623276987501,9.808345724798619
1.48,-3.2281323802301547e-06,2.596177464496944e-08,-2.990530091607335e-10,0.9999999999947892,-0.0010495407801365496,0.0015832015670099219,0.0010781297736339936,0.019086583315378883,0.001277997976157269,9.808377800328294
1.49,-3.2281323828400813e-06,2.5961773423807156e-08,-2.990530093931377e-10,0.9999999999947892,0.0016037721666031992,-0.0004403495793553183,0.0009485768711385156,-0.02502312922387449,-0.039674167855367336,9.795191097938305
1.5,-3.228132380336482e-06,2.596177626561047e-08,-2.990530091380782e-10,0.9999999999947892,0.002285461586242902,0.003574299717051247,0.0007451062121605702,0.056131623982086556,0.04044203932381091,9.758678330270671
1.51,-3.2281323808708e-06,2.596177388687457e-08,-2.990530091556931e-10,0.9999999999947892,0.00021298948388906154,0.00010172704306599014,0.0009572345283100046,-0.08272787584223501,0.007181581074538061,9.802564976216331
1.52,-3.228132378832557e-06,2.5961776153973797e-08,-2.990530089484057e-10,0.9999999999947892,-0.0023123490640456932,-0.0036550390732928524,0.0023385258232327595,-0.034363835519804486,0.025683890935086755,9.809257458547181
1.53,-3.2281323819775147e-06,2.596177595426578e-08,-2.990530092473507e-10,0.9999999999947892,-0.0015301324326181145,0.0008782078707659868,-0.0017223542851957782,-0.05569350394917417,-0.02126798690138041,9.818060059987006
1.54,-3.2281323820633166e-06,2.5961773155306993e-08,-2.9905300925510094e-10,0.9999999999947892,0.0004272768647713006,-0.002062950306973967,0.00259241996849218,0.014391203053187421,-0.072410968128459,9.795181481791328
1.55,-3.228132380033112e-06,2.5961775549171878e-08,-2.990530090246866e-10,0.9999999999947892,5.221262195558359e-05,0.0006573490543497341,-0.004381538341422068,-0.0396167439755053,-0.004323162938663781,9.864625627769005
1.56,-3.228132380593462e-06,2.5961773137902554e-08,-2.990530090843305e-10,0.9999999999947892,0.0012233591731476187,-0.002055393179582532,-0.0011468716052336601,-0.019920325354737763,-0.007998067763015716,9.740890585351602
1.57,-3.2281323811488107e-06,2.5961775216008743e-08,-2.990530090993492e-10,0.9999999999947892,0.0009845888884645012,0.0008228395325617797,-2.2662319238691262e-05,-0.02720620408652042,-0.03847673345687036,9.742188205008231
1.58,-3.2281323817002736e-06,2.5961775086975327e-08,-2.99053009156475e-10,0.9999999999947892,-0.0011916325324988946,-0.00031278589989613644,0.007003656036161387,-0.0475995966367868,0.07007024567611486,9.79609781621378
1.59,-3.2281323792112118e-06,2.596177515391313e-08,-2.990530088731658e-10,0.9999999999947892,0.0036942320117984715,-0.0021160433153211075,-0.0008590544966159605,0.05856515896224153,0.012844535375999666,9.815061029291554
1.6,-3.2281323798448284e-06,2.5961774719141383e-08,-2.990530089084789e-10,0.9999999999947892,2.608842585115852e-05,-0.003514154066622247,0.001085995936147458,0.03635573851962799,0.013456267847939915,9.793752049421908
1.61,-3.228132380383735e-06,2.59617775100818e-08,-2.990530089602234e-10,0.9999999999947892,0.0007630506904377672,-0.002619596164565215,-0.003462202201397177,-0.005454968317989237,-0.08034794810203603,9.875173370578988
1.62,-3.228132380859864e-06,2.5961774415852435e-08,-2.990530089794275e-10,0.9999999999947892,-0.0010097104025185652,-0.0006402540671353709,0.0006557713616822517,-0.05950991290614896,0.027755051261469453,9.811891234586913
1.6300000000000001,-3.2281323814082543e-06,2.596177430479059e-08,-2.9905300901252557e-10,0.9999999999947892,-0.00280666341190957,0.00037390598235475733,0.002066818861731208,-0.0813324568505903,0.017367441673941816,9.793598569624285
1.6400000000000001,-3.228132378890205e-06,2.596177415764451e-08,-2.9905300875628435e-10,0.9999999999947892,0.00013422725674432895,-0.004030662498218763,-0.00021251358066513718,-0.08272313164145513,-0.02904308082304851,9.758670236384926
1.6500000000000001,-3.22813238250547e-06,2.59617740791431e-08,-2.9905300908811623e-10,0.9999999999947892,0.0027210697239294294,1.3182920165309437e-05,0.003920531469484277,-0.018083258334435623,-0.03228065532704579,9.732221028215452
1.6600000000000001,-3.228132380676003e-06,2.5961775606384076e-08,-2.9905300890613236e-10,0.9999999999947892,0.0010412650238685846,0.002613010350771482,0.0017242997213332144,-0.05169462785363569,0.01878001669414359,9.834210197985925
1.67,-3.228132380558878e-06,2.5961773686166615e-08,-2.990530088806133e-10,0.9999999999947892,0.0009535529203699858,-0.0008416944011061457,-0.0019708248305484346,-0.010617240989868142,0.004684853360540468,9.793045739169859
1.68,-3.2281323788125638e-06,2.5961775836768823e-08,-2.9905300871080653e-10,0.9999999999947892,-0.0006972295481753425,0.0027541289667307924,0.00032334747164686206,-2.6391548347479143e-05,-0.00028465163065417853,9.820549534629551
1.69,-3.2281323816698613e-06,2.5961775586734014e-08,-2.9905300899067746e-10,0.9999999999947892,-4.0277691718731794e-05,-0.0019284501076850262,0.002470050504953356,-0.004503919563681215,0.002538810547536005,9.802439568914666
1.7,-3.2281323822297674e-06,2.5961773201983475e-08,-2.9905300903006485e-10,0.9999999999947892,0.0011088883775024058,-0.0018178399854017696,-0.0020384629527272578,0.02048640297616483,0.0010090375305883497,9.878322038383116
1.71,-3.2281323797212887e-06,2.59617760723713e-08,-2.990530087610223e-10,0.9999999999947892,0.004597010421066071,-0.002281912679465216,-3.378613085630057e-05,-0.05397555264094644,0.01718195988363434,9.835880022734964
1.72,-3.228132380279243e-06,2.5961774908466704e-08,-2.9905300879492527e-10,0.9999999999947892,0.0010442253397897345,-0.0028953676147574986,-0.0001619075438797496,-0.010269982073339975,-0.004999626352147646,9.773251819111678
1.73,-3.2281323808125153e-06,2.596177588091179e-08,-2.9905300881137427e-10,0.9999999999947892,-0.0011886166719545376,0.0013196973075562171,-0.004582521043994472,-0.023512794218286528,-0.002487057925091976,9.84225342758005
1.74,-3.2281323813757397e-06,2.5961774332135345e-08,-2.9905300886254697e-10,0.9999999999947892,0.00030148286036601655,-0.0028213566066561052,0.0020960897258206984,-0.024547064589586963,-0.028324793815668027,9.80873204399845
1.75,-3.2281323802408036e-06,2.596177411462134e-08,-2.9905300872710256e-10,0.9999999999947892,0.0037170440679708786,0.005288444715401078,0.0029825914480865355,-0.004034177642048962,0.004741070646504905,9.800427394461138
1.76,-3.228132379420381e-06,2.5961775340988653e-08,-2.990530086245071e-10,0.9999999999947892,-0.003253913273192768,-0.0017816260058702792,0.0012112297745861,0.011018482553367714,-0.03678740814626738,9.825987398885381
1.77,-3.228132383046643e-06,2.5961773598090042e-08,-2.9905300897284174e-10,0.9999999999947892,-0.0008970393365253962,-0.0008674076397295781,0.0010067431394065107,-0.036884004879132584,-0.02797544448363442,9.748807179551298
1.78,-3.2281323805258217e-06,2.5961775067439978e-08,-2.990530087041123e-10,0.9999999999947892,-0.0005817372930259962,-0.0012974492457095991,-0.00047846677205279613,0.016511238698692556,0.011317683216509711,9.786350526935593
1.79,-3.228132381059042e-06,2.5961775044104746e-08,-2.9905300873595556e-10,0.9999999999947892,-0.0026231888935938107,0.002643602368941936,0.00034483861643284106,-0.020242233107041797,-0.023659808842361584,9.777054587210998
1.8,-3.2281323785634755e-06,2.5961775891153585e-08,-2.990530084766413e-10,0.9999999999947892,0.000645122887748949,-0.0001449554540325134,0.0007660073538853973,0.01338913679261364,-0.03620672293638502,9.7941408399899
1.81,-3.228132382186869e-06,2.596177464010516e-08,-2.9905300878984876e-10,0.9999999999947892,0.0024865975794440267,-0.001999110731343379,0.0041240264684706,0.024844466410233607,0.0002874492492350774,9.79725346793697
1.82,-3.228132381704143e-06,2.5961775447033227e-08,-2.9905300873546623e-10,0.9999999999947892,0.0007908506106659751,-0.0009681228706685307,0.0023173409554874905,-0.0056626740812098595,-0.036759446571546804,9.81921582309935
1.83,-3.2281323802176326e-06,2.5961774378748094e-08,-2.9905300857792193e-10,0.9999999999947892,-0.0027707584735079914,-0.005066778446405715,6.612725783713725e-05,-0.021592031833217208,-0.04508575784599869,9.81069082124496
1.84,-3.228132380069568e-06,2.596177487692598e-08,-2.990530085358139e-10,0.9999999999947892,0.0016628707894919773,0.001255064410807248,-0.0014433802778034796,-0.006780373804714169,0.02084027074963083,9.820072172253655
1.85,-3.228132381334145e-06,2.596177459735087e-08,-2.990530086503175e-10,0.9999999999947892,-0.0032168594376592087,0.0005849936383003855,-0.0004916023061007717,-0.020208740738880668,-0.00031747396885342324,9.778011924636882
1.86,-3.228132381885752e-06,2.5961773910719265e-08,-2.9905300865738597e-10,0.9999999999947892,0.0006073152712465444,-0.0006952084471803848,0.0013266235116351959,0.0002718847911157129,0.08033879016895167,9.82672653800334
1.87,-3.228132379361468e-06,2.5961776873130313e-08,-2.9905300841121417e-10,0.9999999999947892,-0.0019303554234068926,-0.00016738146618115504,0.0020100429146916116,0.009154522630689783,0.04965377714354009,9.762041427864695
1.8800000000000001,-3.2281323799249904e-06,2.596177382545887e-08,-2.9905300843251273e-10,0.9999999999947892,-0.0009216146196061792,9.323349194504491e-05,-0.003112129434254118,0.05076100925270485,-0.06734837634072306,9.852597222980013
1.8900000000000001,-3.228132383253258e-06,2.596177366280125e-08,-2.9905300873436707e-10,0.9999999999947892,-0.0008238060175021336,-0.0001451284185058037,0.001230698616917185,-0.009258938005489895,0.0027102990186002943,9.773390391568256
1.9000000000000001,-3.2281323810505e-06,2.5961776282540283e-08,-2.9905300850678967e-10,0.9999999999947892,0.0021396034966916144,0.004677046945619274,-0.003807441150926477,-0.07062439334248577,-0.02566480510670064,9.806835918048026
1.9100000000000001,-3.2281323815871193e-06,2.596177312076479e-08,-2.9905300853836005e-10,0.9999999999947892,0.0011017986694381995,0.00018652169934809686,-0.002548046723865752,-0.11789826520388752,-0.0330435322476221,9.8559833398027
1.92,-3.228132379087025e-06,2.5961775987905537e-08,-2.990530082683194e-10,0.9999999999947892,-0.0008105458746405595,-0.004947609264342008,-0.0004865888218439102,0.03434208294446621,-0.015263940112498748,9.850881643778557
1.93,-3.2281323826996306e-06,2.5961772851537605e-08,-2.9905300859910866e-10,0.9999999999947892,0.0018664116672156771,-0.0034063917751213577,0.0005779272544449072,-0.02856769543676337,-0.04617270092096493,9.842763933386683
1.94,-3.2281323804155893e-06,2.5961775457536813e-08,-2.9905300836295527e-10,0.9999999999947892,-0.0015115717234749917,-0.00040184396277043535,-0.0016027251691513294,0.008488847742108927,-0.007327198998217141,9.824859734015318
1.95,-3.228132380747344e-06,2.5961775167234723e-08,-2.990530083868598e-10,0.9999999999947892,0.0035278441920394673,0.0009516047550804992,-0.002162945142625894,0.03696544878762132,0.025782236778759786,9.807677798782667
1.96,-3.2281323787415964e-06,2.596177490763499e-08,-2.9905300816567336e-10,0.9999999999947892,0.0021041968397847457,-0.0005064509567222965,0.004698056083096428,-0.015416264687374975,0.0027666470165285915,9.799345770853463
1.97,-3.2281323812529805e-06,2.5961775263650932e-08,-2.99053008384579e-10,0.9999999999947892,-0.0025975285933295582,-0.004007003142449266,0.0017946799782479913,-0.010408709822021509,0.008498916544621243,9.816883233611266
1.98,-3.228132382409391e-06,2.59617743885478e-08,-2.9905300847867623e-10,0.9999999999947892,-0.0011496002357763292,0.0020987572513277396,-0.0014304188615457277,0.05427082381361283,-0.10160141487481297,9.798883870112308
1.99,-3.228132379901409e-06,2.5961774925927067e-08,-2.9905300823473535e-10,0.9999999999947892,0.0015380538500753054,0.0019089023522826888,-0.0011192248654499463,-0.002798448339626742,0.04778239147010164,9.814598069563736
2.0,-3.2281323804584555e-06,2.5961774764493225e-08,-2.9905300825301914e-10,0.9999999999947892,-0.0019197218365208288,0.0006104140058985231,-0.0006620605796603408,-0.03054126190668953,0.08542041997571993,9.769055855768299
2.0100000000000002,-3.228132382012279e-06,2.596177571574916e-08,-2.990530083909909e-10,0.9999999999947892,-0.0018646488700010742,0.004039296166412503,-0.00409371242269601,0.009089707102083608,0.039246802987932775,9.803132954906879
2.02,-3.2281323815637852e-06,2.59617744914413e-08,-2.99053008326582e-10,0.9999999999947892,0.0005490081824196107,-0.0012420532569374714,0.0008631781205137026,0.023088959605285106,0.0011816735174766876,9.771633738489765
2.0300000000000002,-3.2281323803345456e-06,2.596177487532486e-08,-2.990530081931735e-10,0.9999999999947892,-0.0017871134235013853,-0.0009770653139512227,-0.001444789057045199,0.03819689028223881,-0.02505462247572246,9.802963445364195
2.04,-3.228132379603827e-06,2.596177417630227e-08,-2.9905300810416184e-10,0.9999999999947892,0.0013917759849373448,-9.782041347371337e-06,0.0003829845707249471,0.022730433090529724,-0.06164093206287723,9.843181861348643
2.05,-3.2281323832310912e-06,2.5961774027860444e-08,-2.9905300843851754e-10,0.9999999999947892,0.0006799200601840074,-0.0017471169839429054,0.0016201179213488916,0.03808603925032568,-0.006169147274661169,9.850916363423947
2.06,-3.22813238071415e-06,2.59617754752883e-08,-2.990530081908945e-10,0.9999999999947892,0.0009930309162968355,-0.001352201569743772,0.0008246782421353724,0.023753102024302974,0.01400842792160803,9.83600252191212
2.07,-3.2281323812799695e-06,2.5961773661234452e-08,-2.990530082109682e-10,0.9999999999947892,0.00027642146831763814,-0.0013815933178251574,0.0026350525795001047,0.002117575412829916,0.01102856986293932,9.791512387630535
2.08,-3.228132378775135e-06,2.596177651034164e-08,-2.990530079540352e-10,0.9999999999947892,0.0002477144263201196,0.0034633905866120157,-0.0012152964669953552,0.026467531586374788,-0.0275168871292506,9.841062946475116
2.09,-3.228132382402021e-06,2.5961774828317617e-08,-2.990530082887263e-10,0.9999999999947892,0.0010604247388698851,-0.0016511323280319996,-0.000696992540982187,-0.00030640806243835937,0.022613401934003505,9.75170213631426
2.1,-3.2281323815785e-06,2.5961774545982253e-08,-2.9905300819398326e-10,0.9999999999947892,0.004160251608864737,0.0015036705415559916,0.002054072764490448,-0.02370871598523468,-0.004565859195342128,9.790426878998131
2.11,-3.2281323804235438e-06,2.5961774238956966e-08,-2.9905300806342815e-10,0.9999999999947892,0.0013552559204662424,-0.0011578707675543017,-0.0009008645663853092,-0.017390873275857338,0.019041044607358875,9.79734667571583
2.12,-3.228132379832939e-06,2.5961774032720445e-08,-2.9905300798352457e-10,0.9999999999947892,0.000512528071636987,-0.0009636806319179149,-0.0002869476959549309,-0.014829375724108834,-0.0314693311775914,9.864221586746286
2.13,-3.2281323815400543e-06,2.596177581804945e-08,-2.9905300812604557e-10,0.9999999999947892,0.0005817255432021967,0.0036948907460906634,-0.0011116175022611939,0.015797371531426352,-0.004616322373756409,9.765949951109453
2.14,-3.2281323821146413e-06,2.5961773607673647e-08,-2.990530081674231e-10,0.9999999999947892,-0.0007862018961469743,0.0017367796451326278,-0.0005673923864364703,0.009856664963451242,-0.000982059009239273,9.833069432399906
2.15,-3.228132379603104e-06,2.596177536947888e-08,-2.9905300788693873e-10,0.9999999999947892,-0.0024228597152036635,-0.002795118841650922,-0.000497452216786155,-0.02988462938743417,-0.028907866116758954,9.797459353523868
2.16,-3.2281323801600577e-06,2.596177520838398e-08,-2.990530079272268e-10,0.9999999999947892,0.0009133686208408615,-0.00018224235845314948,-0.0031744496397524955,-0.016502798585680593,0.0356086661256826,9.731215958038039
2.17,-3.2281323827796286e-06,2.5961773959517323e-08,-2.9905300817396735e-10,0.9999999999947892,0.0032306226228014235,0.0008591372543379975,-0.00363971697100035,0.02568705138961229,-0.00452437263131124,9.73841961951971
2.18,-3.2281323812718414e-06,2.596177489705859e-08,-2.990530080027362e-10,0.9999999999947892,-0.002762716704936229,0.0012109735606135302,-0.0007221742175254571,-0.0467917790472817,-0.02544895520818777,9.775833637680433
2.19,-3.22813238100945e-06,2.5961775512424703e-08,-2.990530079797794e-10,0.9999999999947892,0.0007757104548779935,-0.004742926157697703,-0.0015992721539916264,0.0016033694914873147,-0.03708814033451219,9.839328709238462
2.2,-3.2281323792872495e-06,2.5961775090818934e-08,-2.9905300778372664e-10,0.9999999999947892,-0.00146718552113139,0.0037032237369604855,0.0009220772405721295,0.029336044161430392,0.01855991611590913,9.744874776338465
2.21,-3.228132382920287e-06,2.596177454344809e-08,-2.99053008113955e-10,0.9999999999947892,-0.0008298611129422429,-0.002748637431747745,-0.0067921091982084,-0.016635341363386864,-0.000499973183390328,9.77303493088384
2.22,-3.2281323804224897e-06,2.5961774709687824e-08,-2.9905300784338855e-10,0.9999999999947892,0.0018750063511368872,0.0024184148141448733,-0.0008933301692097122,0.029196575481736778,0.009111675461651756,9.823034414155561
2.23,-3.228132380962954e-06,2.5961774212828994e-08,-2.9905300786971326e-10,0.9999999999947892,0.0019898463970441835,0.0008812291965838101,-0.0030313181728873033,0.026098223223761124,0.038954749784744995,9.800265648779057
2.24,-3.228132378465797e-06,2.5961777018131352e-08,-2.99053007632677e-10,0.9999999999947892,0.0023123306924353435,-0.00018273116286636522,0.0005483646198864258,0.04900876819499009,0.09409640144316711,9.804907826916041
2.25,-3.2281323820856787e-06,2.596177393729611e-08,-2.990530079638938e-10,0.9999999999947892,0.002142925997605082,-0.00018991263853075925,-0.002430865542201755,0.02451837731052802,0.00959582409638772,9.862361097105222
2.2600000000000002,-3.228132382632154e-06,2.5961773738910325e-08,-2.9905300799012765e-10,0.9999999999947892,0.0010733765370058452,-0.00013694409832135622,0.0018409868560317678,0.005428322625542725,0.03450995333275594,9.877434005529162
2.27,-3.228132380124636e-06,2.596177650825566e-08,-2.990530077324408e-10,0.9999999999947892,0.0033074817756253722,-0.0019971702730262183,0.0005659730668011471,0.046637658905377216,-0.03542428006300548,9.866305698710153
2.2800000000000002,-3.2281323806816326e-06,2.5961773369251108e-08,-2.9905300775261137e-10,0.9999999999947892,0.0013507989729130505,-0.0038439773607610132,-0.002155790771313124,-0.016679516805786512,0.015094590959753431,9.83054475571297
2.29,-3.22813238124039e-06,2.5961776028121295e-08,-2.990530077867453e-10,0.9999999999947892,-0.0022263895308630086,0.0004823233765144455,-0.002346454132133184,-0.03486354088727742,0.010478579542138315,9.761402401817136
2.3000000000000003,-3.2281323817928695e-06,2.5961775760958934e-08,-2.990530078262886e-10,0.9999999999947892,-0.00153563014099755,0.000957577530136522,-0.0001851642972477451,-0.03931970147447873,-0.015922758401119463,9.781736403409637
2.31,-3.2281323798497323e-06,2.596177545696163e-08,-2.9905300762745806e-10,0.9999999999947892,-0.0004331101384405299,0.00029449825193614406,0.0010214491392199947,-0.010209452625025914,0.0061750850312133065,9.768608621258858
2.32,-3.2281323798200044e-06,2.5961775894666357e-08,-2.990530076043196e-10,0.9999999999947892,-0.00043011102481852566,-0.0017155328180520771,0.0001286866781671685,0.02391464616300401,-0.006599780943256563,9.828497522601625
2.33,-3.228132382667049e-06,2.5961772662589125e-08,-2.990530078587453e-10,0.9999999999947892,-0.0005012194138622569,-0.0007496198833380401,-0.004072765358886657,-0.0696316157289951,-0.07050343121506839,9.855614205732344
2.34,-3.228132380932399e-06,2.596177557985371e-08,-2.990530076682155e-10,0.9999999999947892,-0.00015421591047008444,-0.0017003614142597967,0.0009900914582737384,0.022580860933334494,0.020908837088876277,9.82519341487995
2.35,-3.2281323814981135e-06,2.5961774502967408e-08,-2.9905300772544035e-10,0.9999999999947892,-0.0027216414855364204,0.0011416331153569258,0.0022626609355741252,-0.03969884821046826,-0.00438386209908094,9.833523956521539
2.36,-3.2281323798716006e-06,2.596177428855279e-08,-2.9905300753703295e-10,0.9999999999947892,0.0014710365509361843,0.0012318367710998004,-0.001834568209705735,-0.014496159957016141,-0.07287373393553628,9.809182094495212
2.37,-3.2281323817088794e-06,2.5961774982424906e-08,-2.990530076870554e-10,0.9999999999947892,0.002046894270139255,0.001753704243065523,-0.0010414254912353587,-0.020817011729467233,0.031473027544099474,9.797138161395662
2.38,-3.2281323812239903e-06,2.5961775706072307e-08,-2.990530076140136e-10,0.9999999999947892,0.001265328874148817,-0.0013567024378844884,0.0015785063338786503,0.00774636713819811,-0.020018859574286955,9.78229666330962
2.39,-3.2281323806467086e-06,2.596177476018824e-08,-2.9905300754687433e-10,0.9999999999947892,8.794225228478977e-05,0.0012707283566572717,-0.0004854881463766882,-0.01220989893162973,-0.07069843736729042,9.850929249664187
2.4,-3.228132381201049e-06,2.596177461491994e-08,-2.9905300759890203e-10,0.9999999999947892,-9.093937032392599e-05,-6.369513345133191e-05,0.0022075576036022088,0.0013141755658981347,0.025996129410015386,9.820475862131607
2.41,-3.228132380369647e-06,2.596177441587967e-08,-2.990530075139534e-10,0.9999999999947892,0.0007103135902256947,-0.00012597000081784513,0.0011434922596856266,0.036573417459668564,0.0013129665435936194,9.788601169843453
2.42,-3.228132382336706e-06,2.5961774165237267e-08,-2.990530076876264e-10,0.9999999999947892,0.00042154616380859567,-0.0009467102553538934,-0.00046511993207767085,0.011532768451773187,0.002681587009535719,9.776878035879395
2.43,-3.228132379812305e-06,2.5961775637693253e-08,-2.990530074112984e-10,0.9999999999947892,-0.0006319410629629036,-0.0023911022806464596,-0.002107784746840855,0.05126865126005865,0.014997649357093214,9.774944944102854
2.44,-3.228132380380738e-06,2.5961773827175856e-08,-2.9905300743249366e-10,0.9999999999947892,0.0015977508501543477,-0.0017932393544189825,0.0011701818078479012,-0.022153514669736172,-0.031001337177437433,9.826422962753282
2.45,-3.22813238093478e-06,2.596177519147771e-08,-2.990530074823468e-10,0.9999999999947892,0.0032153286046527714,0.002571759361277649,0.00027818025211787654,-0.023260230742656304,-0.011398864387331661,9.81765575216383
2.46,-3.228132381486816e-06,2.5961774922622146e-08,-2.9905300751550687e-10,0.9999999999947892,-0.0010401988026021722,0.0017739424873315039,0.0005125457060043152,0.014841823605500973,-0.03496014197308246,9.797105693555638
2.47,-3.228132382041318e-06,2.596177340257012e-08,-2.9905300754491516e-10,0.9999999999947892,-0.0022309594519002805,0.0010725308066623866,0.002366903820071754,-0.011303161955831278,0.006680645687857407,9.78707977453652
2.48,-3.2284980035488584e-06,-7.286331472190968e-06,-2.862354558080372e-07,0.9999999999128892,-0.0054887525674438675,0.010526402582287354,-0.0009551217123957318,1.4090720669436536,-0.03950765714450702,8.717563970952469
2.49,-3.7979415588485736e-06,-2.5348345250568677e-06,-2.1899508018368515e-06,0.9999999999375574,-0.0024409397661462034,0.007790222958727402,-0.0013181136505441156,1.1022603970911846,-0.06535316288167481,8.872809486730208
2.5,-3.710159669282028e-06,4.458761668213681e-06,-5.809958729663045e-06,0.9999999999555035,0.0007453103840563077,0.00975225716562632,0.0018646494424122083,1.0188775875816451,-0.022825613090648164,8.950213554577013
2.5100000000000002,-3.6225193012193808e-06,2.007036765429793e-05,-1.0847676184128966e-05,0.9999999996980973,0.0011412039526679085,0.0004635780383869738,-0.0023046103552392095,-0.9168538141950456,0.09915491763920195,10.578459126876023
2.52,-3.5586381764550364e-06,6.807905038897437e-06,-1.7418981431235907e-05,0.9999999998037294,0.001587200320687411,0.007313167856697828,-0.0047176962779178645,0.8076916046327759,-0.013116426603599183,9.101286382650196
2.5300000000000002,-3.49147941392086e-06,1.6580813572630194e-05,-2.4761696239667304e-05,0.999999999549026,0.0013759735731870182,0.00019715696868571978,-0.0002183743389340319,-0.44467872306946354,0.036992215498823616,10.212492741598771
2.54,-2.7538785197202437e-06,1.2392246134010896e-05,-3.442348664127909e-05,0.9999999993194689,-0.0018895369064940754,0.0015442300492056566,-0.0021655383503695444,-0.2781015509695371,0.1686921246390395,9.73316124255794
2.5500000000000003,-3.343515988386669e-06,4.6897835304905165e-06,-4.472096744147673e-05,0.999999998969425,-0.00425867551173968,0.002076675137792014,-0.003207397271954562,-1.1739486082440473,0.12283189362350812,10.877589953285087
2.56,-3.3026349587176575e-06,1.4790910492486077e-05,-5.5358155054716965e-05,0.9999999983495399,0.0011604033889351265,-0.004357248697350228,-0.0026433965644890984,0.01608867863906599,-0.010775949621886587,9.805014313030666
2.57,-3.2912643301184196e-06,4.53091509902173e-06,-6.811552560831106e-05,0.9999999976618399,-0.002163287948762739,0.0049467283516985774,0.0015245354267709188,0.011885036343392573,-0.052966483856841315,9.795540907863762
2.58,-3.2880454375057995e-06,7.73806572836409e-06,-8.108321845963525e-05,0.9999999966759733,-0.001237949335388674,0.00017502070076741818,-0.0038031485241095493,-0.015257716447180748,-0.050700281522972575,9.784487057753859
2.59,-4.14464285720182e-06,2.975503761231926e-06,-9.573197602360891e-05,0.9999999954045108,0.00045078291834932307,0.002326323323240654,-0.004321741213778377,0.02851904648888237,0.01822986684578816,9.809288776557947
2.6,-4.9361517894529515e-06,2.2513103455222116e-06,-0.00011193881149465508,0.9999999937169889,1.3936121649882804e-05,-0.002222742981013168,-0.0036320432558012874,0.9122990961456741,-0.9525621044250534,9.848377301243728
2.61,-4.988251236513681e-06,6.5029424792610035e-06,-0.00012931130328796607,0.9999999916031603,0.00224286345268942,-0.0013007458132809088,-7.08791223333555e-05,-0.01667772843649559,-0.04806662572953058,9.852530803585548
2.62,-4.81598292907557e-06,-7.583995236437526e-07,-0.00014873631615544642,0.9999999889249497,-0.0015703709445040528,-0.0031280275335840908,-0.004535225897754788,0.059122940188294906,0.028652973180055517,9.815232071906221
2.63,-4.629288811196511e-06,1.1715660740485589e-05,-0.00016814754863540732,0.9999999857796696,0.0007536355559370225,-0.00048611468870636424,0.000956545028337254,-0.03585236668591284,-0.07106807876074123,9.754983760577671
2.64,-4.494725366270757e-06,6.2779259558025755e-06,-0.00018887562939079255,0.9999999821271279,-0.0011363544763712365,-0.000982250726284301,-0.004903160371385142,0.01510560221799704,0.019262198345993086,9.802327536233445
2.65,-4.371652599783011e-06,2.3804469290951442e-06,-0.00021101305852233907,0.9999999777168592,-0.0006686614537628469,-0.0017288106545866894,-0.002883559275766474,-0.056596116896786355,0.010100850142944779,9.803557673545864
2.66,-4.262467237297008e-06,-1.9169318767127105e-07,-0.0002337092789946416,0.9999999726697921,0.001001544214790819,-0.000529933569267785,-0.003398196525389761,0.01768672251230076,0.03526007244082924,9.767478083953964
2.67,-4.124876680548819e-06,6.543482765572079e-06,-0.0002574601767080108,0.9999999668149162,-0.001520013964227546,-0.0023993417479686303,-0.0028241482188844725,0.026636163468534774,-0.1587926339885885,9.83116317891152
2.68,-4.037859537262335e-06,5.2955894347930195e-06,-0.00028132018827579464,0.99999996039147,-0.0005810838499354804,-4.605055566121968e-05,-0.00890394462631713,0.037277404980015125,-0.029250219200262086,9.84033635129863
2.69,-3.958171078051664e-06,3.084117676786964e-06,-0.00030680691438284664,0.9999999529026813,0.0009555271495350587,0.00025597304611624564,-0.00703636197166983,0.026176757234884336,0.0026759418743584965,9.822700388102364
2.7,-3.883788556650696e-06,1.7816547471407422e-06,-0.0003343135768406587,0.9999999440862685,0.002883556619052259,-0.002148266788970391,-0.006236959880254328,-0.009438276219498661,0.05568079981242728,9.801894955515875
2.71,-3.819773917717218e-06,1.395062088536347e-06,-0.00036140918832898173,0.9999999346570826,-0.0016163860934875628,-0.0013273986013518577,-0.0012009604776024238,-0.0541833088063994,0.01510646530676028,9.814048549441234
2.72,-3.7575318158568474e-06,1.2641454513357612e-06,-0.00039135001537040856,0.9999999233861949,-0.0026869966462429915,0.002357551681820024,-0.005741536995640418,-0.06490846418822466,-0.005616443194303362,9.792422761648774
2.73,-3.700778674276783e-06,1.1456242269032445e-06,-0.00042242788695909386,0.9999999107392287,-0.003198053060989179,-0.00036500144841293655,-0.004335905947722443,0.005896503466274468,0.02211556126083717,9.797184349827964
2.74,-3.649334588618519e-06,1.0390225188022286e-06,-0.00045434815950004775,0.9999998967440182,-0.00024420843807753095,0.001623169013098978,-0.008426533173802476,-0.03547850191654861,-0.058893253281976754,9.814562232194838
2.75,-3.6036665798965216e-06,9.451632802654912e-07,-0.00048626995108715646,0.9999998817296047,-0.00041596446070466187,0.00042402566072986087,-0.006140172199544053,0.00570663546229321,-0.026345458976105185,9.814927466446223
2.7600000000000002,-3.5616673319577595e-06,8.5963615812471e-07,-0.0005191620057604822,0.9999998651940394,0.0003434520480012429,0.0020132912887946765,-0.004349471548805242,0.025466043577260074,0.002933422089575869,9.751607650447074
2.77,-3.5230389706325516e-06,7.817630948400031e-07,-0.00055296822321058,0.9999998470723422,-0.0010320565414443268,-0.002494723046004085,-0.008562827115624878,0.005276755254476968,0.025779807705167836,9.828071957440683
2.7800000000000002,-3.4867452923588688e-06,7.094580760211958e-07,-0.0005888400811699473,0.9999998265902975,-0.00035767637371698056,0.0005762748693439576,-0.0068773943025171366,0.06263984663556846,-0.014270101912184547,9.792197776651665
2.79,-3.4532770968971607e-06,6.437363511985913e-07,-0.000626309926274977,0.9999998038212294,0.00048131753377022364,-0.0016346924029547437,-0.006720311718873232,0.023385383176598808,-0.05074646159973141,9.817527545737475
2.8000000000000003,-3.4237626137660493e-06,5.866484581556262e-07,-0.0006634828595074425,0.9999997798507524,0.002869234531160139,0.0024181828915548487,-0.010284264154515749,-0.05074554326571097,0.027672578631133003,9.804138294145078
2.81,-3.3963508574951527e-06,5.345063056608761e-07,-0.0007020561277801883,0.9999997535173456,0.0002483500994492763,0.001382810760866714,-0.006761934768531212,-0.016164197362019777,0.02879365819946525,9.826621250951009
2.82,-3.3709613199643953e-06,4.870828719993827e-07,-0.0007418279045853551,0.9999997248086512,0.003141869564281954,0.002559552553015167,-0.010052926783096933,-0.07218630607398524,-0.021023718411046107,9.809277152197145
2.83,-3.3472864461791867e-06,4.4373721910281693e-07,-0.0007829742690754284,0.9999996934415373,0.0007014105250905334,-0.002882510691841178,-0.0090153096213735,0.014155749350408744,-0.011071751679143803,9.776705191568558
2.84,-3.325311208306514e-06,4.043688671830849e-07,-0.0008252093368971685,0.9999996594831019,0.004023247114899268,-0.002251518453467723,-0.01065111043025012,-0.03588896607529004,0.02320864758737825,9.858617484311125
2.85,-3.304842316438273e-06,3.6855778744020125e-07,-0.0008685689883337566,0.9999996227630609,0.0013216288595752016,0.002264547191472104,-0.010591209272057839,-0.0238236876477786,0.02798415375468418,9.781259691959791
2.86,-3.285998912863412e-06,3.3641750559529713e-07,-0.0009123914101989787,0.9999995837441362,-0.00010851230935072525,-0.0010503357368729094,-0.008773971618357836,0.0010966594054031163,-0.00208628622675228,9.849527923605056
2.87,-3.26815319755279e-06,3.068186064439284e-07,-0.0009578250415859755,0.9999995412553517,0.0029179691200140238,0.0015843583570468215,-0.0057836189251531545,0.025505313617521203,-0.005804133116576808,9.822821769261838
2.88,-3.251770566744608e-06,2.8052066257895734e-07,-0.0010035808984843228,0.999999496385364,-0.0014463268645564676,0.0008046773657633282,-0.008792700897579714,-0.03175599147703467,-0.07709631975377731,9.792770473328963
2.89,-3.2365328141294623e-06,2.5692553761311217e-07,-0.001050266527605066,0.9999994484506532,-0.0006443124589072171,0.0021325906745158748,-0.005696169015125816,-0.021875065766569786,0.046368377944012724,9.782413856259543
2.9,-3.2218742599073874e-06,2.35104762959837e-07,-0.0010993436552891975,0.9999993956987633,0.0006326836500734657,-0.0004206520070769045,-0.008891604197464865,-0.0045788124842861145,-0.05492135801799261,9.776915086343552
2.91,-3.2086546436981455e-06,2.162124073537673e-07,-0.0011473993533269002,0.9999993417269795,0.0015617298145482591,-0.0023668109394431795,-0.012043672765909143,-0.006026117124296044,0.006831439448707316,9.772793843726241
2.92,-3.195907566361996e-06,1.9878120144287607e-07,-0.0011974628426706772,0.9999992830187477,0.0012861214977452256,-0.0002602336189265722,-0.00857019807902936,0.001519351175263771,0.0038482188603525327,9.725417424011283
2.93,-3.1838789902454036e-06,1.830771804716412e-07,-0.0012482805921466905,0.999999220860659,-0.0029473856164229373,-0.0011628177267132972,-0.010080021572887676,0.079540894437687,-0.05689165853482597,9.763655010735873
2.94,-3.172151564648511e-06,1.6849840505101072e-07,-0.0013013753984371676,0.9999991531739364,-0.0012319281356898558,-0.00311048216449993,-0.008136404855073437,-0.006147145599260495,0.012811593056662456,9.749757014180656
2.95,-3.161202430171992e-06,1.5558749803980225e-07,-0.0013543055456762363,0.9999990828803677,0.005082073318486381,0.004377191561466031,-0.01111123923769041,-0.03538835760513745,-0.003986631527038979,9.829084911602385
2.96,-3.1507446832892865e-06,1.4391195599042455e-07,-0.0014080274139555875,0.9999990086712319,0.0010846851395255783,0.0009653634678279508,-0.010649013014234952,0.044432170156398665,-0.047325670412508986,9.782466146899162
2.97,-3.140740978876108e-06,1.33365976564278e-07,-0.0014624261653757998,0.9999989305865332,-0.004372305097870147,0.0005660130524403686,-0.010351145800002912,-0.0008451683091854102,-0.008763671959659488,9.771878559823781
2.98,-3.131341026226842e-06,1.2407461692813637e-07,-0.0015164142093372116,0.9999988501546567,0.0013676128007945117,0.0016214858830415383,-0.010429292144468645,-0.024082352047416884,-0.015422183697587265,9.764109466787783
2.99,-3.1218110049434384e-06,1.1529355624716209e-07,-0.0015742438986656086,0.9999987607852101,0.0010766558013098337,-0.0006802382939465499,-0.011767157131948928,-0.004163847697252844,-0.0010561124769206051,9.799229397464876
3.0,-3.112455695531857e-06,1.0729598749675097e-07,-0.001634061997119107,0.9999986648289892,-0.004005102068009284,-0.001089059543699426,-0.009059949151985507,-0.07824875027740477,-0.06126427316388447,9.796509951118674
3.0100000000000002,-3.103463987356065e-06,1.0018529378157588e-07,-0.00169437053663539,0.9999985644588322,0.002165755607942311,0.0028458445016811065,-0.01017810196839946,-0.08883612673385137,-0.011019845141040159,9.7785975125605
3.02,-3.094728071978131e-06,9.380595640441493e-08,-0.001755555002707568,0.999998458912385,-5.1547708311459276e-05,-0.0029045082471009158,-0.01431701676306547,0.010969016223953118,-0.004064394700588982,9.85010023223046
3.0300000000000002,-3.0864064609417367e-06,8.820281621693188e-08,-0.001816152734952179,0.9999983506781548,0.0033892303284131352,-0.0004911876983923067,-0.012288148981078342,-0.01261375839024528,-0.021318723795038873,9.752318612439757
3.04,-3.078491464038832e-06,8.328775640469796e-08,-0.0018758154865739151,0.9999982405246979,-0.0010463817148286649,0.00034496104146755673,-0.013667028211544488,0.0024488114509641223,0.016422257459983127,9.734258540166815
3.0500000000000003,-3.070270311045802e-06,7.859089114946606e-08,-0.0019398106344674856,0.9999981184297495,-0.0010127481724844167,0.0003929586778633747,-0.017299592930501186,-0.04076877013264372,-0.008727045137626144,9.808829947250612
3.06,-3.0622558937472066e-06,7.439876443291144e-08,-0.002004095223998741,0.9999979916593253,0.0008130933482904661,0.0018026130563522703,-0.014761166311070106,-0.035306983513503705,0.01904802994311785,9.80039159497219
3.0700000000000003,-3.0541822413889603e-06,7.054236495593748e-08,-0.0020706652563279057,0.9999978560279599,0.003767881997956244,-0.002281455918193616,-0.013643685000982241,-0.024452501539398593,0.03195488492185104,9.854322913440798
3.08,-3.0463153487019313e-06,6.715295421621236e-08,-0.002137147752007769,0.9999977161482261,0.0021226762888183082,-0.0014697247062065684,-0.012728142704399889,-0.05053598126712039,-0.006589618104675145,9.762001292083923
3.09,-3.0384393475179785e-06,6.411835942858431e-08,-0.0022053271394513424,0.9999975681080933,0.001371366856041409,-0.0005289176843984601,-0.01477452597956982,-0.006971869503455332,-0.03409692445335208,9.850024332043562
3.1,-3.0307724452016482e-06,6.145979087073042e-08,-0.0022732020181502775,0.999997416113083,-0.00018989765852285285,6.204259979708136e-05,-0.013158125095845394,-0.005727510197529265,0.004313469029387348,9.833906552749498
3.11,-3.023169750572643e-06,5.908620217028533e-08,-0.00234185640796598,0.9999972576914302,-9.326709713433808e-05,0.0026878137313598852,-0.014767221981613423,0.027565948904223703,0.036775281977689644,9.76062625059004
3.12,-3.01527658116906e-06,5.687674817008622e-08,-0.0024144342383075118,0.9999970850839365,0.000361231347379904,-0.0015346934047655355,-0.015862474620320477,0.0513374233092775,-0.02526774821753182,9.828887516556302
3.13,-3.007664305973136e-06,5.4967715260451016e-08,-0.002485570684056608,0.999996910804091,-0.001894197434355292,-0.001373891936365235,-0.015414561241851345,0.0214400309789006,0.013278625682000854,9.781837994623627
3.14,-2.999873542834435e-06,5.322141196535107e-08,-0.0025594339567897324,0.9999967244815935,-0.002020779793764433,-0.0005978605412157357,-0.013607385836444061,-0.02027031893119626,0.029664498279185162,9.825571747115376
3.15,-2.9922263078072793e-06,5.169168230142532e-08,-0.0026328817485289594,0.9999965338076915,0.0023541800677413923,-0.0003186364394097041,-0.015392743194585681,-0.00444946446191441,-0.008303759902671274,9.819737775200569
3.16,-2.984685104093145e-06,5.034600477469935e-08,-0.002706144375159801,0.9999963382549044,-0.0017335433693951836,0.0011487497030918414,-0.01366798152100261,0.07997152150604483,-0.02977355358137315,9.820379182263647
3.17,-2.976783424489913e-06,4.9095838152351945e-08,-0.0027837197378834462,0.9999961253050578,0.0016624583248664865,-0.0004824444241972685,-0.017954807195278193,-0.030590638947084185,-0.041927582103792,9.86716559239293
3.18,-2.9754613485473346e-06,4.196880022067633e-08,-0.002857475174883565,0.9999959173140397,8.314696108949676e-05,-6.63124399803987e-05,-0.015501621137696181,-0.007256674618272689,0.007230344624278497,9.854300705350985
3.19,-3.015351547377718e-06,-6.624721349113672e-09,-0.00293774125029182,0.9999956847144259,-0.0011943100714756757,0.003591483541879723,-0.012079706200280035,0.015532680985255483,0.05844244166818033,9.8303620965128
3.2,-3.0841971519343205e-06,-8.377292526498825e-08,-0.003017913782472025,0.9999954459762488,-0.003179658324412626,-0.00154408717749329,-0.020543248090183836,0.0443198926794191,-0.06558211565714286,9.7634344058476
3.21,-3.198651915546422e-06,-2.0599944868462216e-07,-0.0030975376345654224,0.9999952025409506,-3.4553267567649236e-05,8.25348981041884e-05,-0.010947355177615985,-0.007172728133969105,-0.03198606228406617,9.791028572896149
3.22,-3.0424035542415656e-06,-5.960740565885788e-08,-0.003182629221218225,0.999994935313168,0.0006297729973000876,-0.0012677103718169579,-0.01557825537443121,-0.00394060540142132,-0.03469699619656715,9.852113532058155
3.23,-2.9583398485447335e-06,1.570995328323332e-08,-0.003262357976858101,0.9999946784679046,0.005695730947264116,0.0022527770177321986,-0.01749371028356571,0.03890946725751368,0.023655916655424655,9.804466284914552
3.24,-2.9166182876202455e-06,4.8278350043059955e-08,-0.003349818466694558,0.9999943892747022,0.0007252031342903117,0.00032304890309781836,-0.015731337972416104,0.05466649970525611,0.02545069864688912,9.747116273165123
3.25,-2.9089096894120393e-06,4.750403458523121e-08,-0.0034339320092381708,0.9999941040158463,0.003149694388917095,0.0007464750294390776,-0.018181510117732353,-0.06941247296379018,0.047106255539914356,9.827120629018461
3.2600000000000002,-2.901159388308636e-06,4.683391593781433e-08,-0.0035184072611364092,0.999993810339135,0.00014193176331939086,0.0026478358359051544,-0.019486114724959574,-0.0012372461102878318,-0.07242892481816336,9.835982527021832
3.27,-2.8930641646955008e-06,4.623275527572154e-08,-0.003606563034530592,0.9999934962817374,-0.0037286367577277213,0.002642858152732801,-0.014380638389680702,0.018227121924513878,-0.03632843634484151,9.826461601319183
3.2800000000000002,-2.885013799579449e-06,4.572475355339664e-08,-0.003694154169491964,0.999993176512471,-0.0011009491472369715,-0.0010724835670915453,-0.020887856480039907,0.006628490610169199,0.004616531115771677,9.801366905776524
3.29,-3.0170535102887552e-06,-9.409706748208986e-08,-0.003785577833454361,0.9999928346117347,0.0015415168586644917,0.0020516268186860356,-0.017364515645031674,-0.0033695226511668216,-0.03846658292254739,9.813136758240233
3.3000000000000003,-3.193758621353307e-06,-2.779551715204447e-07,-0.0038753034586070973,0.9999924908724209,0.0035659068021048038,0.002702955035294378,-0.018395858420180752,0.04291274893026238,-0.07172925436695271,9.840503532110935
3.31,-3.0392393239788864e-06,-1.3310295793594904e-07,-0.0039653207636745754,0.9999921379229552,0.002959265149990749,-0.004462004098527931,-0.01980726718607773,0.017400149055312793,-0.06196796073105118,9.847313337210513
3.3200000000000003,-2.9449359994667975e-06,-4.828928123555909e-08,-0.004058649576580461,0.9999917634576215,-0.00014186874382248957,3.71086762360293e-05,-0.018230832328622736,0.010801285636479308,-0.03789286384637795,9.816329166900756
3.33,-2.9036313173260247e-06,-1.6048901764066227e-08,-0.004152302005888251,0.9999913789309147,0.0015957727902064477,-0.0010565855527215893,-0.019927870777036356,0.01110463634597529,-0.06957585191026815,9.78529176724614
3.34,-2.8889694236689044e-06,-1.0447967925674556e-08,-0.004248681856556065,0.999990974070124,0.00048124081400018217,0.001014865280964433,-0.020138003432972743,-0.008561410315838451,0.03708168322726048,9.82687491218874
3.35,-2.874514855606131e-06,-5.2647650093246464e-09,-0.004347777804393569,0.9999905481336522,6.823269542587541e-05,-0.001277037182268376,-0.016378921491084393,-0.03613665893797982,-0.005256640040753921,9.833494306597622
3.36,-2.8610755522281422e-06,-7.454977376132123e-10,-0.0044435407374267995,0.9999901271479464,0.0019353532600437802,-0.0002119424332728255,-0.02184680159043819,-0.03198878576998526,0.0008608377294303041,9.869509871789312
3.37,-2.8473986478605193e-06,3.5627485204785686e-09,-0.004544499891611115,0.9999896734334428,0.002963779712132417,0.0015839088089937127,-0.021279079057585727,-0.025758974952342778,-0.03242426919587427,9.794203132606844
3.38,-2.8346049872712144e-06,7.332074829840982e-09,-0.004642095292016438,0.9999892251129482,-0.0024220678515145286,0.0003145656368023651,-0.025759070571612842,-0.014838627449318869,-0.06113277804431272,9.800105301054732
3.39,-3.40017953688404e-06,-5.617957767567382e-07,-0.004739880131773215,0.9999887663704713,-0.0023716236669338153,-0.0019687774053688484,-0.021701465725132457,0.022933134167911456,-0.03941205572366034,9.751663983465612
3.4,-3.010734766910298e-06,-1.855690595856646e-07,-0.0048458042744099,0.9999882586829906,0.00010732215687835644,-0.0015175365070052031,-0.02163238095671968,-0.02136523926484911,-0.008024190182832958,9.7834164942925
3.41,-2.997152478352923e-06,-1.8149703735735836e-07,-0.004950069259696401,0.9999877479803098,-0.0019086688520999423,0.002020958440523391,-0.02005838664724864,-0.005878891504226116,-0.04970493176592154,9.828649146819586
3.42,-2.7647318944715744e-06,3.907672616394728e-08,-0.005056073892705918,0.9999872176147194,-0.0037658503262725696,-0.0022774050084550896,-0.020522035814197464,0.06361572419414568,0.007892490983173187,9.784742645593784
3.43,-3.002097286923338e-06,-2.0550563501253573e-07,-0.005163287260506457,0.9999866697713604,-0.002632565521627316,-0.0012691892094963174,-0.022606142677169042,0.015348307449046965,-0.0016482385207061898,9.773831708776239
3.44,-2.872838166278013e-06,-8.715913126567702e-08,-0.005270278186376929,0.9999861116092453,2.2380161838435678e-05,-0.002079117031697145,-0.022358374678966803,-0.0291945969700657,-0.009999500653005994,9.761287923502142
3.45,-2.8015586469140584e-06,-2.6353982776821317e-08,-0.005378867739916132,0.9999855334059831,-0.0014748789798801794,0.0005694953107128386,-0.022363766701291088,0.03712001609390369,-0.01463654464292415,9.791825982826232
3.46,-2.779965334137357e-06,-1.4564137900931321e-08,-0.005485852662310476,0.9999849522368325,-0.0012345171178723365,0.004656478472234476,-0.01868928428276468,0.016188543993823554,0.023677356197566078,9.828165426636357
3.47,-2.763397930806711e-06,-8.463930474298153e-09,-0.0056009444533261735,0.999984314202613,-0.002839440025715456,-0.0010908058805321754,-0.023827398887688526,-0.02363188843787602,-0.008049704191137475,9.818064501384638
3.48,-3.185367757812867e-06,-4.355309473521688e-07,-0.005711850043200814,0.9999836868748266,0.0016086535247375518,-0.0025367716852539844,-0.018928188860964312,0.02178620617899174,-0.006046778970544361,9.844890543848347
3.49,-2.7646862383555194e-06,-2.9913808323727334e-08,-0.005827568434189079,0.9999830191911215,-0.0013927422440487723,-0.004969751060915382,-0.023433433337679183,0.014573334172085136,-0.050740714128799165,9.78661629229128
3.5,-2.6909268802847374e-06,3.239158565342774e-08,-0.005946644100528311,0.9999823181428485,-0.0008642931470362093,0.001636382462569475,-0.023787775745759264,-0.009916447511576741,0.004846389871073886,9.8352061607885
3.5100000000000002,-2.749734685114211e-06,-3.581436954684622e-08,-0.006060287194912676,0.9999816359161056,-0.0029348522651717382,-0.0017330899410680496,-0.022678355721378215,0.018754730065494607,-0.03744852861167493,9.788474107776413
3.52,-2.9188049253137447e-06,-2.1342298594184687e-07,-0.006179884472655824,0.9999809039532901,-0.000542576708332992,-0.0004348032699619137,-0.025968394812541887,0.012026967751857359,-0.004369066668877335,9.750815701230827
3.5300000000000002,-2.757910864957302e-06,-6.485160245309807e-08,-0.006296685945385749,0.9999801753585232,-0.0011944063677388405,-0.0008175487880660717,-0.025854228826561444,0.038066529418953915,0.03170858904708453,9.78680715260536
3.54,-2.6598026457464098e-06,2.1128735938190615e-08,-0.006419550570988825,0.9999793941421452,0.0006132063726165238,0.002994044155623268,-0.030681976187178703,0.006482414225398503,0.005604014862934211,9.80668950200713
3.5500000000000003,-3.142196760956985e-06,-4.651175331979087e-07,-0.0065335232542234525,0.9999786561815988,0.0007574739993571778,-0.002528917562607315,-0.02454550078146416,0.07359798544899841,-0.007059231580423095,9.821838016734807
3.56,-3.0791960911242606e-06,-4.142027249247577e-07,-0.006661948727023468,0.9999778087455338,-0.0048438048177421355,-0.0005631176792075616,-0.023646321501171935,0.015332643725977545,0.014921152769843675,9.83865611946154
3.5700000000000003,-3.0232336924082537e-06,-3.6990457289456765e-07,-0.00678640701811017,0.9999769718675766,0.008533425953702581,0.0019933986746968136,-0.02730571709680434,-0.01088440192893004,-0.01695721423632754,9.740048919422183
3.58,-2.6608666589932704e-06,-2.328379587363965e-08,-0.006909498102532986,0.9999761290204311,0.0004678253125557284,-0.0017091966420700257,-0.02653539029906979,0.02309304748586687,-0.0043688558103857685,9.821026101866398
3.59,-2.6387788074649808e-06,-1.2443691834458885e-08,-0.007033451407336629,0.9999752649424771,-0.0008640034073190244,0.00029616441209205386,-0.022758570472409558,0.043952468796246855,0.08020321813704229,9.80258232582885
3.6,-2.732581510810161e-06,-1.1623501141015099e-07,-0.007161726951709357,0.9999743544149595,0.0014365184164910239,0.0013716257617557813,-0.027006006052244794,-0.05818996877910435,-0.03148166077054555,9.809515627072166
3.61,-2.9218475043802586e-06,-3.1408430468971665e-07,-0.007290341641525149,0.9999734249281336,0.0021674664676460966,0.0002466892224366,-0.02568894633277431,0.01805346906380324,0.03864618228733899,9.803221958752777
3.62,-2.793029644182889e-06,-1.9887947252332023e-07,-0.0074241010441272685,0.9999724408230469,0.004220724621992821,0.0001977110204389326,-0.022539152225615276,0.06256356860272352,0.08843865393525904,9.756277487915483
3.63,-2.694597554449048e-06,-1.136643107892661e-07,-0.00755788306398143,0.9999714386181038,-0.004485383770348368,0.00044013867365578184,-0.029427103985919308,0.08211910618445548,0.01142605091972397,9.760927094459324
3.64,-2.6493648879147712e-06,-8.094965321852106e-08,-0.007692430139970403,0.9999704126168435,0.0017396589931982153,0.001371870886502986,-0.02761829603520134,0.052290920237997376,-0.03714143799513644,9.795395088569009
3.65,-2.623595723861489e-06,-6.712797934362417e-08,-0.00782372623192297,0.9999693938460062,0.0014874953729755345,-0.0012939453334212404,-0.02886801969146925,0.0012024897107454167,-0.0063983921606506,9.809416131970952
3.66,-2.599974497014897e-06,-5.5645211545950326e-08,-0.00795751035777721,0.9999683380889441,-0.00016844196540178268,-0.0017097629766823262,-0.028649547654539545,0.010567673128232452,-0.009822135601603527,9.816601064249852
3.67,-2.5764238294490473e-06,-4.478722565029574e-08,-0.008097560454250786,0.9999672138199739,0.002378810834761002,0.0004926571211254888,-0.03045695443657332,-0.06043964328176019,0.005197731174423995,9.775575398718887
3.68,-2.554493417352117e-06,-3.523626689286846e-08,-0.008234327060131717,0.9999660968857399,-0.00043020161251021557,-0.0021655110371274823,-0.02775300286611103,-0.028842115730882162,0.020687754313185765,9.796159966328629
3.69,-2.533107142073899e-06,-2.6468901280653834e-08,-0.008373884258871733,0.9999649379027661,1.4176534949967317e-05,-0.002538311619051506,-0.028882477346939446,0.016582076828741486,0.05714941671611462,9.766423885994103
3.7,-2.5120821638922038e-06,-1.837774988296564e-08,-0.008517049499673066,0.9999637287495028,-0.0006776060993016692,-0.0007618419784726472,-0.03033047329274901,-0.004146687767231781,-0.019410777201806992,9.797576628220218
3.71,-2.491704105455419e-06,-1.1032099113676283e-08,-0.008661417295881744,0.9999624886769447,0.0014573268635211256,0.0009466998617827678,-0.03209829482841194,-0.050443010531764684,-0.07654637712052806,9.826655911299296
3.72,-2.4721233781020297e-06,-4.4276778883164146e-09,-0.008805262122186217,0.9999612323374223,0.00015713082459918202,0.004981929826235556,-0.030626295336162467,0.05357091117119382,-0.026944986305299193,9.803296489600417
3.73,-2.453323032253158e-06,1.5043140848309318e-09,-0.008947998116922587,0.999959965208686,0.001516046440477199,-0.0013010274558836392,-0.02676599361184844,-0.042315572055345335,-0.04851083637750792,9.794536696693855
3.74,-2.434919209440842e-06,6.934440530727405e-09,-0.009091985532894272,0.999958666349759,0.0001904719412865099,0.00041979817696873224,-0.027197020156447003,0.010656608417014407,0.027933001836245364,9.845473292831716
3.75,-2.4162401527086856e-06,1.2077593396440609e-08,-0.009242297688157259,0.9999572883502726,0.0034229197530592217,0.0008537913920824607,-0.027123033600679608,-0.029256564668547008,-0.044208468049751884,9.773520958961491
3.7600000000000002,-2.3983998879203274e-06,1.6655388771842882e-08,-0.00938964270811705,0.9999559156105255,-0.0025264431729409382,-0.000982817151823816,-0.029268557697911746,0.023798512717403984,0.01180246018115165,9.83479487156303
3.77,-2.380638488301225e-06,2.090306876688573e-08,-0.009539848110450742,0.9999544938826364,0.0015376544427720853,-0.0021840443394084423,-0.0298865389227,-0.01617144342431601,0.01026309360427518,9.794364153621661
3.7800000000000002,-2.3637104767129373e-06,2.4679962292124195e-08,-0.009686123546537383,0.999953087688996,0.0006878022390519928,-0.0025652028644478023,-0.02996238731253927,-0.00012449666500305434,0.019626888614760456,9.764160148016234
3.79,-2.346384311826137e-06,2.8277010589549912e-08,-0.009838947620410111,0.9999515956703059,-0.0006679678886329977,0.00027344884466583703,-0.0345799896707276,0.029916696007596763,-0.033789157637868716,9.7869372751895
3.8000000000000003,-2.3287723251345414e-06,3.166391102126009e-08,-0.009997344111687491,0.9999500245615128,0.00031727066883570766,0.0005391650917202398,-0.0304217832006654,0.056988313547506025,-0.013287053125191031,9.822578957077766
3.81,-2.3120570757334205e-06,3.4644084129998967e-08,-0.010150312645496835,0.9999484835496578,0.0018522933490483296,-0.0008565911431850206,-0.03517135805535054,0.01675861078508846,-0.058233449856014224,9.755965534425767
3.8200000000000003,-2.2945914842412113e-06,3.7532916461028925e-08,-0.010312700052994641,0.9999468219479509,0.0005523199088470349,-0.0001446726729759342,-0.0282389262967035,-0.007134399259969955,-0.015015015727692536,9.79614318636252
3.83,-2.2779395531835813e-06,4.008911281804421e-08,-0.010469754344246317,0.9999451899145583,-0.0026182957549076677,0.0027858282483715804,-0.032776414915209766,0.019777192746971102,-0.008470942694575833,9.790650462961178
3.84,-2.261413948188705e-06,4.245006044520017e-08,-0.010627606411416933,0.9999435247592016,0.0005136371747536992,-0.002316601185116062,-0.03197666547284311,-0.020293653379840522,0.014527565377614737,9.770168353384562
3.85,-2.2445224318634247e-06,4.4696647058619606e-08,-0.010790843674642586,0.9999417765098118,0.0002533644853015539,-3.025637928093022e-05,-0.03138213794420394,-0.0030887930014118457,-0.026037088321765194,9.824580649015598
3.86,-2.2281947098747837e-06,4.6721422279654784e-08,-0.010950291997151694,0.9999400432222183,-6.476161335658664e-05,-0.001947238223626318,-0.03225514071553244,0.005937580595185853,-0.021782394012794908,9.823283377519072
3.87,-2.2114941825670303e-06,4.865540303367285e-08,-0.011114937365330636,0.9999382266592419,-0.0010617100231836872,-0.0012371418002908071,-0.031124277590106775,0.010875741838338952,0.034015265555422856,9.816525020548964
3.88,-2.1958801469254667e-06,5.0349879610974125e-08,-0.011270158961409657,0.9999364895807737,0.0048584408300897915,-0.0008476167008751366,-0.035366316547241886,-0.003166201596836467,0.01345066250174476,9.828845859770766
3.89,-2.178246007978335e-06,5.214842568487528e-08,-0.011446880366227109,0.9999344818635009,-0.0015265305343911254,-0.000648034465084124,-0.03420770746048954,0.040117426943247964,-0.01543791764864132,9.835043237999532
3.9,-2.1619091349298117e-06,5.3704201507060356e-08,-0.011611832227627773,0.9999325801074354,0.0016994576986950952,0.0006468578364715405,-0.03517088845635478,-0.04853849431364626,-0.03320127378929471,9.846317697129058
3.91,-2.1452539146135944e-06,5.519160549708017e-08,-0.011781110230459146,0.9999306000986175,-0.004189713806578205,0.0014795417665324137,-0.03997549243689848,-0.03540539835193028,0.024241997080291833,9.736721997400748
3.92,-2.128254973316291e-06,5.661729265767365e-08,-0.011954923025038422,0.9999285371105749,0.0004910283125313052,0.0011601585463080091,-0.036639568510854564,-0.0767904763194086,-0.0018829041994185016,9.748537564369563
3.93,-2.112319184979129e-06,5.787752896436628e-08,-0.012118721968601033,0.9999265653948028,-0.0014219836153105273,-0.0006763365044995585,-0.03437328446675657,0.029152890251643367,-0.03938560191508378,9.804672730959746
3.94,-2.095533971078638e-06,5.913319811413739e-08,-0.012292062504869179,0.9999244494541903,0.002835004971841423,-0.003221194297928499,-0.03843833286712425,0.03351920280976997,-0.045377811590610134,9.759798681270318
3.95,-2.078230760797354e-06,6.035815267565817e-08,-0.012471531605704455,0.9999222272277825,0.001991348266447376,0.0023465557162242676,-0.03273347438307871,0.02026647214979773,-0.03184430928544003,9.82298470421273
3.96,-2.0620130888006612e-06,6.144916706361544e-08,-0.012640393831414078,0.9999201065069523,0.0013653496166901118,-0.001772259732835766,-0.03529738616532725,-0.02014731288673008,0.012343456563809248,9.78369985355469
3.97,-2.044906597074016e-06,6.254553387397625e-08,-0.012819119053594516,0.9999178311792983,-0.0015477023774947182,0.003537769582847555,-0.036621264397314196,0.05511239161334992,-0.021825105699163176,9.847734068125574
3.98,-2.02727657713074e-06,6.362301494858677e-08,-0.013003904282457436,0.9999154452779218,0.0003643392968270332,-0.0020604240880803177,-0.036609082641411037,0.04413205074339715,-0.047696794406055176,9.812460769493951
3.99,-2.010711266634642e-06,6.458917882137255e-08,-0.01317806651601308,0.9999131648732201,-0.0015656948407386114,-0.0010409239375750372,-0.037870832221648394,0.046470128343980024,-0.01367915426442618,9.828849927896623
4.0,-1.99345881263365e-06,6.555379522046291e-08,-0.013359921636640256,0.9999107515656004,-0.0007337089362671736,0.0017658665166387342,-0.03632178591370486,-0.016566686821461393,-0.046451923511228545,9.800903989273014
4.01,-1.9761847239697748e-06,6.648014332994923e-08,-0.013542452321372602,0.9999082960045015,-0.001271815614814243,-0.002050331756788825,-0.035871281348123424,-0.00700234552461953,-0.05852916034796422,9.847329820038437
4.0200000000000005,-1.9583496758406834e-06,6.740506380536201e-08,-0.013731268014379143,0.9999057209469325,0.0006844067977183542,-0.0024464143990028868,-0.039313252159022136,0.021425447829215863,0.007141645972002394,9.779733547760692
4.03,-1.940893800338497e-06,6.827825113546489e-08,-0.013916435365696133,0.9999031608848188,-0.0009781204074876672,-0.0028773991460424603,-0.0385488520095928,0.0075139633365753945,0.014516180963106865,9.776212386602072
4.04,-1.9231181698608227e-06,6.913973662199858e-08,-0.014105308788376954,0.999900514312544,-0.00013952030203447707,-8.141504086129584e-05,-0.03455110229903111,-0.06632433874303623,-0.005931254629507974,9.832530821859432
4.05,-1.9051945042813163e-06,6.998325948363495e-08,-0.014296041275043261,0.9998978054928398,-0.0031824508572259958,0.00021727434287040475,-0.03592899530551291,-0.03517823843230647,-0.035675996297863784,9.774255243213812
4.0600000000000005,-1.8878710768064665e-06,7.077735659728107e-08,-0.014480630192474003,0.9998951491366527,0.0007499494716908564,0.0015563083315756811,-0.03537652388371741,0.0044739650344697846,-0.10332348340761907,9.795548632121864
4.07,-1.869515797551765e-06,7.159801700442687e-08,-0.014676447251771436,0.9998922941393964,-0.000597319263867158,-0.0029285450104272956,-0.03564064087496881,-0.03613409714038562,0.015138537354324827,9.831966387174576
4.08,-1.851846455386475e-06,7.237045123649079e-08,-0.014865149347724694,0.999889506460412,0.003352905581027904,-0.00045811597038172814,-0.0370532331775845,5.61127515381378e-05,-0.03318034267931577,9.750109519220743
4.09,-1.8339193447792866e-06,7.314750640960473e-08,-0.015056751512797053,0.9998866395224313,0.002667566550183253,0.0010884756779261941,-0.04149829665119447,-0.018388545029626318,0.009445008755694734,9.829987943316288
4.1,-1.8156507559575293e-06,7.392295942604712e-08,-0.015252182810391765,0.9998836774868824,-0.00025179061714661354,0.0008435091000364482,-0.042894495264294466,-0.030563225139270952,-0.021931586026305815,9.782528600041761
4.11,-1.7971900062588777e-06,7.469111746684306e-08,-0.015449835207049652,0.9998806429356134,0.000730406566588522,0.0023918907657521646,-0.04062198645742559,0.0051634684728500534,-0.006810596742205799,9.857831226985141
4.12,-1.7781456939256154e-06,7.546890195790264e-08,-0.015653890550197228,0.9998774691114072,-0.001329976662434609,0.0004183173936365466,-0.04221035758534584,0.011745335216292865,0.00296247328072209,9.83395874130642
4.13,-1.759688917288572e-06,7.621090743027319e-08,-0.01585178070217294,0.9998743513501759,0.001363337689937993,-0.0020043202388779963,-0.038059929159990846,-0.02673762243728831,-0.01855634410063082,9.744924822789121
4.14,-1.7408911480024863e-06,7.695549444878877e-08,-0.01605344560937241,0.9998711338366666,-0.002172617753201964,-0.002529386805639542,-0.04209904930670557,0.015375959118821227,-0.028500308700126285,9.802989904442553
4.15,-1.721833889044459e-06,7.770027410442936e-08,-0.016258002664558176,0.9998678286216638,-0.002593993398413037,-0.002077235551772176,-0.041303591074774534,-0.002667841694395656,-0.00015334911741229917,9.831174972013232
4.16,-1.7035876959650988e-06,7.840546793097814e-08,-0.01645394258365665,0.999864623433001,-0.00012060491853584392,-0.0020459755006357145,-0.043639357411407925,0.009043846587197132,0.0075659049126400885,9.755312787492667
4.17,-1.6846591264885266e-06,7.912900512285346e-08,-0.016657294966280527,0.9998612563767965,0.003399156104710994,-0.002549088126649831,-0.04004324634282129,0.011692362153859541,-0.04810440450969575,9.795419951016102
4.18,-1.665578064926167e-06,7.986000290873682e-08,-0.016862328628818233,0.9998578196023019,-0.0010456597786962722,7.33125283311209e-05,-0.04307608636464964,-0.0025191986556927365,0.015435963540675075,9.793773888497778
4.19,-1.6460707910766063e-06,8.059949105410846e-08,-0.0170720201620989,0.9998542612131992,0.0009569682725885164,-0.0016473114290953476,-0.04219110355155791,-0.043743943857660804,-0.0587117427740344,9.843337715555009
4.2,-1.6264947595555674e-06,8.133426100365336e-08,-0.017282521873155477,0.9998506448531265,0.0016219640264926044,-0.0030114392834263617,-0.041509044581709606,-0.029006258840169375,0.009936680632585244,9.81040144396081
4.21,-1.6073075171493352e-06,8.204849492436875e-08,-0.01748890240464462,0.9998470564100478,-0.0007181760553358844,0.0010295200421717502,-0.04142024505903995,-0.04691629636102269,-0.07331767471137461,9.784583454939703
4.22,-1.5873101754802353e-06,8.278648901858923e-08,-0.017704055490574095,0.9998432698866815,0.0008452769031388856,0.00037495711024345237,-0.04563490390261329,0.002008239499003044,-0.014006621413461956,9.795677009590865
4.23,-1.5680229423088628e-06,8.349385460986825e-08,-0.017911614440144465,0.9998395734352342,-0.002647072969906777,-0.005002760640995413,-0.0475042558761407,0.02146816531742703,-0.03471498459962757,9.83215494644027
4.24,-1.5475446939170462e-06,8.423949571743066e-08,-0.018132039382517236,0.9998356002422699,0.005261432249748259,0.0006027681467904581,-0.04268577778872222,-0.051678309552776275,0.010917143214485659,9.830101850921785
4.25,-1.5272174773021895e-06,8.497563579487787e-08,-0.01835087894662352,0.9998316076441307,-0.0018906462546707142,-0.003128629359053201,-0.04638034108479736,-0.0976801192606799,-0.0549904391015337,9.752051434552858
4.26,-1.5073075339196985e-06,8.569339065441761e-08,-0.01856525996005358,0.9998276501636795,-0.0009894772086888842,-0.0027844373607759415,-0.043319347039715336,-0.0033743941677014037,-0.07611882926898321,9.860169456711274
4.2700000000000005,-1.4866335542491294e-06,8.643508274664884e-08,-0.018787901525074455,0.9998234912105112,0.0008240313065164633,-0.002645929407991267,-0.04387699828313828,0.025401792049169744,-0.01708068079998651,9.793482792358454
4.28,-1.4663062721290789e-06,8.716925017697074e-08,-0.019006808910321037,0.9998193538929921,0.00016762958135951614,-0.0016274833553917608,-0.04384743698581783,0.04879629065131566,-0.04250637034646897,9.81453474237332
4.29,-1.446014638110796e-06,8.789897703610569e-08,-0.019225360486918426,0.9998151756162075,-0.0023799407951855603,-0.000924155499751187,-0.04302303546124993,-0.043291289104804,-0.08153502678513173,9.838163782452947
4.3,-1.4254274317392607e-06,8.8635198551016e-08,-0.019447125873487865,0.9998108865422237,-0.004091805940793141,-0.0022158634522292243,-0.04325263452459471,-0.012263845902874437,-0.08797349936685832,9.773508928184585
4.3100000000000005,-1.404494367965542e-06,8.938072544149687e-08,-0.019672641536960012,0.9998064744790441,-0.0012957426839407598,0.0019297754259761804,-0.04418798807475808,-0.016535161437189885,-0.013356703044908115,9.841848886561023
4.32,-1.3834923585129608e-06,9.012597465028414e-08,-0.01989892196328661,0.9998019962785482,0.002867728034166635,-0.001631407460604701,-0.04716013494419996,0.028240540043785345,-0.11310832250283934,9.72938789723382
4.33,-1.3617208752113686e-06,9.089645128395693e-08,-0.02013351119618759,0.9997972998940606,-0.001051610328379495,-0.0030130888620355416,-0.049403044434571566,-0.07780495372584167,0.014319771882934457,9.817416294419168
4.34,-1.3409565887270827e-06,9.162863651886193e-08,-0.020357266776697646,0.9997927685257043,0.0014633182717140479,0.001947249188357942,-0.04408955504249285,0.03244704770286583,-0.11602247572399564,9.799801397165629
4.3500000000000005,-1.3191571438831615e-06,9.239601669116058e-08,-0.020592190069165402,0.9997879575574875,-0.0019459759606669062,0.0017878994415083617,-0.04604331656179825,-0.06568152903244406,-0.052737778193624324,9.853584274414569
4.36,-1.2978076552434887e-06,9.314573732353296e-08,-0.020822278163677405,0.9997831918372343,-0.00040281773479852734,-0.000461891016018629,-0.04123479711313507,0.009415255170203961,0.06573835422893039,9.780117046763833
4.37,-1.275790812051217e-06,9.391782786584953e-08,-0.021059568024299594,0.999778221714588,-0.002744655290074773,0.002989644899204365,-0.04745475206254722,0.016359777267512518,-0.08121525375207085,9.78314278414708
4.38,-1.2547004136292656e-06,9.464988510762842e-08,-0.02128693360691792,0.9997734061967919,-0.0013279630640716127,7.198955639834477e-05,-0.046992377684678954,0.014639550304624521,-0.060292703017623836,9.865045859964736
4.39,-1.233770909627757e-06,9.537639212592197e-08,-0.02151255993475634,0.99976857641285,0.0006793927418655863,0.00014737301751264662,-0.05033703638215164,-0.03465030153212035,-0.09045773199258222,9.866427871307097
4.4,-1.2101899574616634e-06,9.619424246598505e-08,-0.021766781813538454,0.9997630741097157,-0.0009909688715777605,0.0036692688535323835,-0.04828700914096089,-0.062037265018699495,-0.05763327810179532,9.794951290381885
4.41,-1.188034126572469e-06,9.696280683005316e-08,-0.02200563782962746,0.9997578450735259,-0.0018222045757346798,-0.0005669932950135548,-0.04769944593868462,0.020858996865418866,-0.08777875140287608,9.831199330199437
4.42,-1.1653023738094377e-06,9.775151036945394e-08,-0.02225070257353607,0.999752420903624,-0.001138533989967031,-0.00044731483443081544,-0.04984379141871579,0.02938723446604171,-0.033133682513992596,9.798682935500311
4.43,-1.1430110929682788e-06,9.852506812082901e-08,-0.02249101759875943,0.9997470433564223,0.0011945057133509983,-0.0008017050024475144,-0.049571660419477234,-0.03680717342251256,-0.046274139257949126,9.82635805103004
4.44,-1.1204525426435071e-06,9.930803060272385e-08,-0.02273421342425346,0.9997415425638397,-0.0005705160833165269,0.0024802420434545053,-0.050121014472235166,-0.016639378564503083,-0.03936991114405715,9.733013395454671
4.45,-1.0974626830623045e-06,1.0010609056978344e-07,-0.022982058507944714,0.9997358757770032,-0.002732098578793238,0.00309848094728614,-0.04911498896686677,-0.030706461207755373,-0.033426395915793945,9.801201432731958
4.46,-1.0751482648266602e-06,1.008808041698524e-07,-0.023222620647713643,0.9997303166332148,0.0005490569126601753,-0.0012417799203476465,-0.049847771267966634,0.0010835319856104877,-0.09381756724752574,9.802092779231304
4.47,-1.0518944859027462e-06,1.0168823403589645e-07,-0.02347330936136334,0.9997244619489968,-0.0024244659278701325,-0.0017086976604592206,-0.049331836862860294,-0.02768705539241251,-0.038545419593801214,9.778946939719177
4.48,-1.0287141248209056e-06,1.0249610671399284e-07,-0.02372319644338238,0.9997185633671345,0.0017397327522509277,-0.0016822276066559697,-0.0511491196168506,-0.006429399754030604,-0.030200935584953237,9.727153102142427
4.49,-1.0057203435977778e-06,1.0329950440855062e-07,-0.023971065302679298,0.9997126506926863,-0.0011282809831752246,-0.001118548726513331,-0.05124977226899087,-0.033847658247217825,-0.029612967468462783,9.829245406025965
4.5,-9.827814331506938e-07,1.0410034868549519e-07,-0.02421834425704833,0.9997066908815718,-0.0019141740180552065,0.0023841237407670164,-0.048019046300590944,-0.007999721709764106,-0.01704112896040859,9.771948989255673
4.51,-9.598326123407163e-07,1.0490082830812672e-07,-0.024465731741639008,0.9997006673225246,0.000602920072020891,-0.002423726101274035,-0.04880901317337092,0.00988982941294871,-0.10373318507681858,9.836145286901823
4.5200000000000005,-9.356681010602013e-07,1.057432806922076e-07,-0.024726225420601208,0.9996942582343923,-0.0005682038629544196,-0.002266642308680414,-0.05165011537438702,0.0010092398071925755,0.014122818558635772,9.82063138119219
4.53,-9.119056033067228e-07,1.0657105372080459e-07,-0.024982386297555975,0.9996878896436456,8.578566851440064e-05,-0.00013492598777826547,-0.050684951747204485,-0.036028569964277925,0.015454948753860009,9.758810876576735
4.54,-8.881954263101829e-07,1.0739650803491226e-07,-0.025237983805475143,0.9996814696752538,6.769139222570028e-05,0.0012221824069237382,-0.0518822639045591,0.010341454196397966,0.04119513478898709,9.816516174422476
4.55,-8.654346159251658e-07,1.0818838652625474e-07,-0.025483347391164722,0.9996752457844065,0.000210517490833743,0.0023692996480861113,-0.04965323503983278,0.010424556479512058,-0.043817042047427326,9.782323886945086
4.5600000000000005,-8.410021463778792e-07,1.0903834218429285e-07,-0.025746731200050645,0.9996684970149734,-0.0009106621977855145,-0.0014517609555077964,-0.05363579698878888,0.05120200027725064,-0.03423758706659729,9.76055258134896
4.57,-8.166046788823837e-07,1.0988676470146503e-07,-0.026009737299148017,0.9996616887103044,0.0010042332567280817,-0.00013211104395892547,-0.057612715381731766,-0.018381297057742794,-0.0154805886016143,9.842880003900317
4.58,-7.924550363914767e-07,1.1072661177956624e-07,-0.026270070158163177,0.9996548816303061,-0.0009720579977108173,-0.0001237971293982887,-0.05207554629309572,0.013213702739790325,-0.05898584673745644,9.840335712005377
4.59,-7.671492922158182e-07,1.1161132913067804e-07,-0.026542850273767307,0.9996476756921729,0.0007801171920400798,0.00165840700185699,-0.05375782120982275,-0.05851510412090411,-0.037815265736232714,9.885926363805327
4.6000000000000005,-7.421280640368194e-07,1.1248522751120968e-07,-0.02681256474147728,0.9996404777758156,-0.002138525343995774,-2.4730064113198917e-05,-0.05285770668703489,0.014759788470201884,-0.06616232198399809,9.797143891457061
4.61,-7.185293325216273e-07,1.1330840831855106e-07,-0.027066947235827872,0.9996336227635373,-0.0027770103440120843,0.001238239007784313,-0.05356525570923548,-0.004217822125676181,-0.038536811425471766,9.80546112714293
4.62,-6.934280880568851e-07,1.1418347843467151e-07,-0.027337526240125292,0.9996262595143202,0.0023572934410668782,-0.0027674954683703607,-0.056683090223089545,-0.0666600843068923,0.019294548653931005,9.859833506518065
4.63,-6.678971593564451e-07,1.1507273353777338e-07,-0.027612737620723173,0.999618695215756,-0.0024579265954986244,0.0008257440481349675,-0.052423802392439774,0.0676185798935164,-0.012672703806125167,9.834073975514437
4.64,-6.425469341968599e-07,1.1595516779702835e-07,-0.027886000914749597,0.9996111092355865,-0.0032767118231077494,0.0014932878584934595,-0.059474111800226714,0.031422307338147354,-0.06036631165007968,9.819912110064807
4.65,-6.168942898654334e-07,1.1684757888900635e-07,-0.02816252367780034,0.9996033567919291,0.0010837686631055064,-0.0028304428726857477,-0.056594929870574955,-0.02537007710991584,-0.005378938541194422,9.855559551263113
4.66,-5.915872274693935e-07,1.177276490590463e-07,-0.02843532019148835,0.9995956335265928,-0.0013714171826921927,-0.0028802067401141078,-0.05146743645994585,0.012499156223391093,-0.010420117511160558,9.816455732896353
4.67,-5.655835165256886e-07,1.1863147509138103e-07,-0.02871562523414892,0.9995876204396164,0.0015872637868071231,-0.0005074607753065832,-0.05629511989148644,-0.010114706473133263,-0.05358805755319122,9.877881245402287
4.68,-5.403478842769699e-07,1.1950846885565542e-07,-0.028987649056526888,0.9995797684032421,-0.003221046297386069,0.0017266091484432373,-0.05885877460290906,-0.024867830913864936,0.017715612464133713,9.797459329153579
4.69,-5.151517606894495e-07,1.2037594595421764e-07,-0.029259305047470773,0.9995718530165226,-0.00041785522586948736,0.00011355370942986096,-0.05711685083848767,-0.06262312054110136,-0.03200820559456523,9.749554279661773
4.7,-4.88698212271983e-07,1.2128750530767251e-07,-0.029544508442215373,0.9995634638730622,0.0008332630149193667,0.0005067130413089442,-0.05743166485258996,-0.018979651851259778,-0.055363263787247596,9.801283234441552
4.71,-4.6213892670481125e-07,1.2220383917946307e-07,-0.029830840470919093,0.9995549595763881,-0.0037206948746549935,-0.0011946512857546237,-0.06196707348586694,0.026861128166998944,-0.11153597433787599,9.794839698641724
4.72,-4.3558930922572886e-07,1.2312085350192754e-07,-0.03011705781197264,0.999546376575346,3.27224835045999e-05,0.0001330342895221135,-0.056665990699819854,0.011098682292395114,-0.02696514114127952,9.809135939693343
4.73,-4.096119532213611e-07,1.2401890134763453e-07,-0.0303970973109632,0.9995378992035735,-3.216924103909805e-05,0.004064464821702775,-0.05888506030194774,-0.04981440262048619,-0.003257256855393638,9.834199259802668
4.74,-3.8289373484154635e-07,1.2494368508612692e-07,-0.03068511075330553,0.9995290987595158,-0.0010629337561320622,-0.00042527434088510943,-0.05751635888619055,0.01284946452377174,-0.0706418454501561,9.812276913511754
4.75,-3.566770648065928e-07,1.2585090357794498e-07,-0.03096771969935669,0.9995203825873794,-0.0030905513617926804,-0.003275126158114837,-0.06066080537289768,0.007018268304610508,-0.015985430448450882,9.797946113660057
4.76,-3.3012779295113006e-07,1.2677100300195162e-07,-0.031253897895504285,0.9995114749385868,-0.004307363202847848,-0.001127380552516167,-0.057767845394821604,0.02641064111836315,-0.012631008167405013,9.799044709136322
4.7700000000000005,-3.030993468936617e-07,1.277081529904795e-07,-0.03154523515427987,0.9995023225220672,-0.00087149927055647,0.0030928894269077545,-0.05759830630062543,-0.0068407319160085096,-0.02479219801106325,9.780598026366146
4.78,-2.759009937901744e-07,1.2865168428393116e-07,-0.03183839707070476,0.9994930269917253,-0.00025091735901602895,0.002007791153012269,-0.05980011188194685,-0.0170460670460161,-0.02938769427999028,9.814487537674509
4.79,-2.4807175368947754e-07,1.2962176637290458e-07,-0.03213834206964304,0.9994834272998773,0.001565115744516481,0.004101477565813937,-0.05929238857022039,-0.0380938046107561,0.007780768812406073,9.767329070143118
4.8,-2.2048422515495197e-07,1.3058339228926098e-07,-0.032435677481811344,0.999473822176791,-0.0003842930176980474,-0.001879458879342941,-0.059651691952417756,0.02214126380531942,-0.07132663541502665,9.818675568812868
4.8100000000000005,-1.929450612543638e-07,1.315429942344989e-07,-0.032732488063851144,0.9994641456997211,-0.0012608468128756305,0.00024295282180802945,-0.060029356549908916,-0.04259984531251812,-0.051886608015634134,9.805924768628756
4.82,-1.6465770564414117e-07,1.3252829030119152e-07,-0.033037358458818604,0.9994541146030578,0.0016108274085868358,-0.0008501731350846663,-0.06249228448900408,0.03517915399011064,-0.030771267729118788,9.800527726773954
4.83,-1.3765410303225546e-07,1.334686946812967e-07,-0.0333283900312718,0.9994444520628967,-0.0013822994431930131,0.0004257121639619566,-0.06077029864003708,0.0333790106698637,-0.07079628888930486,9.770583626642395
4.84,-1.1014438437975311e-07,1.3442646807699566e-07,-0.03362487241098894,0.9994345213949071,3.57877197352959e-05,-0.0002827749780758011,-0.05883913693264006,-0.005892570273518349,-0.03624553088748164,9.789626161019429
4.8500000000000005,-8.177380922001182e-08,1.3541395997320076e-07,-0.03393062851572615,0.9994241877492578,-0.002252248746880311,0.0008999383462103162,-0.059123924633019645,0.10076293030966832,-0.05432678832523433,9.818698762293023
4.86,-5.335627700628909e-08,1.3640291873689609e-07,-0.03423688686143585,0.9994137432718672,-0.0029062728263104815,-0.0016321089370710386,-0.062435060060789006,-0.021938385087398003,0.0024309465301495664,9.821247223099673
4.87,-2.4724683492063617e-08,1.3739917910093998e-07,-0.034545448111604184,0.9994031252108898,-0.0020800677000507323,0.00206411771513346,-0.06173669352629761,0.029472566565781767,-0.004652512456483182,9.8179979546895
4.88,3.1161103161911895e-09,1.3837222004455387e-07,-0.03484547122931488,0.9993927098162119,-0.0009526832229505581,0.001190250340760405,-0.0633127093791351,-0.05381854095847721,-0.06626423749591716,9.800498013304786
4.89,3.233333637280885e-08,1.3939255005207814e-07,-0.035160325292103015,0.9993816821564568,-0.0012677362199485244,-0.0011147768990867656,-0.06330296500894746,-0.018160507199526246,-0.04054486395962238,9.73934755338477
4.9,6.086673855971004e-08,1.4038836358406825e-07,-0.035467808620250604,0.9993708171542954,7.105851912351412e-05,0.0011605222613933334,-0.06396772213496006,-0.004325773220001841,-0.038778245979224524,9.807490489483687
4.91,8.975628469251963e-08,1.4139585806853025e-07,-0.03577912808708684,0.9993597200457829,-0.0008628517650236516,-0.004604350516567536,-0.06530430555007506,-0.05585127626786139,-0.04780349774615773,9.852991878489407
4.92,1.1905111167179973e-07,1.4241682198761626e-07,-0.03609481284918748,0.9993483680571459,0.0021989163369691223,-9.457495831922079e-05,-0.06405030064155232,-0.02781310690253872,0.027056708456014305,9.765127599251416
4.93,1.4792008860853602e-07,1.4342250168863415e-07,-0.03640590616592072,0.999337083844712,-0.0018258484317409843,0.0027854368712619277,-0.062026564424693474,0.04796155808754715,-0.059615018652668945,9.772614920930957
4.94,1.782050855726074e-07,1.4447685889364683e-07,-0.03673225601199218,0.9993251412130157,0.0006944387210301702,-0.0003696456724277258,-0.06449589208169351,-0.026504083415749072,-0.03284037706797152,9.794341563883341
4.95,2.0722989472481567e-07,1.4548712973027322e-07,-0.037045023201227316,0.9993135963367077,0.0017393484315145161,0.0011808983990963225,-0.06712925058056284,-0.015370533500764672,-0.08504800006094121,9.803834297280238
4.96,2.366801361271257e-07,1.465118412781259e-07,-0.03736237187088694,0.9993017819964469,-0.00042744565274632914,0.00028090199492538504,-0.06214108850934728,-0.0010082534359860675,-0.03605771226530894,9.758893406186917
4.97,2.6729715391668914e-07,1.475767428799706e-07,-0.03769229027790101,0.9992893919232336,-0.0007606257920580368,-0.0019856808589887643,-0.06055728166547149,0.04483173597228473,0.026211207613196324,9.867606097804286
4.98,2.965857557477395e-07,1.485993792775287e-07,-0.038007881244629595,0.9992774389128268,0.0010558050043265545,-0.0013486193880768397,-0.06259392715031314,-0.07021707001241659,-0.04852423423485563,9.781332390010135
4.99,3.263463096888083e-07,1.496377914323251e-07,-0.03832855583205439,0.999265190905896,-0.004180379913967686,-8.707202470032186e-05,-0.06658245452938114,-0.02607297070883317,-0.008215027739979806,9.846838157932282
5.0,3.5602594387795245e-07,1.5067226067713146e-07,-0.03864835758244346,0.9992528723528334,9.776727554377943e-05,0.002304288657049038,-0.06752637581750827,0.005472835118031996,-0.09894686208648629,9.771404509585667
5.01,3.8634012687814525e-07,1.5172826347447447e-07,-0.038974994608691506,0.9992401851382761,0.001990666810628597,-0.0014786201746067817,-0.06808065752143103,-0.0222754644260763,-0.010767708279280759,9.735290427929401
5.0200000000000005,4.171804118749219e-07,1.528020394637183e-07,-0.03930729801240124,0.9992271683923167,0.0013760210200589019,7.897685310315366e-05,-0.06586151784590688,0.04075305195876152,-0.05136283011886011,9.824706036472623
5.03,4.480212814570151e-07,1.538752803392198e-07,-0.03963960527681715,0.9992140407134116,-0.0036999696689825733,-0.0006733274627096519,-0.06768162249545383,0.030790037481165447,-0.008311698418569838,9.779030732232924
5.04,4.780584781262153e-07,1.5491997014731778e-07,-0.03996325063730924,0.999201148215117,0.0015253207082833282,-0.003470208902078642,-0.06824413695762835,-0.02713104337153808,-0.08817139051400757,9.812066745872078
5.05,5.091825827641489e-07,1.560022461962334e-07,-0.040298604018721595,0.9991876792363282,-4.220948530544739e-05,-0.0018640695382436826,-0.06544516835756731,-0.006147814920061945,0.0012391968852974097,9.755889834188794
5.0600000000000005,5.392421793711927e-07,1.5704703288444287e-07,-0.04062248499491531,0.9991745634193395,0.0006197828480840153,-8.699309519591067e-05,-0.06661866314908185,-0.013980453606718984,-0.06325421833967831,9.754719591247577
5.07,5.698353949617523e-07,1.5811018686789102e-07,-0.04095211219461023,0.9991611072695438,0.0009549233751570511,-0.0008151415999777542,-0.06790871666619844,-0.03243314447967635,-0.006336691139591448,9.796858907607078
5.08,6.015900691647192e-07,1.5920716385348807e-07,-0.04129429862595335,0.9991470235794828,-0.0007098568030484899,0.00010956110457880893,-0.07350757627625153,0.004279863283906907,-0.05929758595243739,9.861765800497178
5.09,6.327032387063858e-07,1.6027986435590994e-07,-0.04162958331559098,0.9991331098122266,0.0012681905080386842,0.002439810428557655,-0.07014588545049305,0.01362899791504748,-0.07266768459362312,9.792545940954678
5.1000000000000005,6.641342335760531e-07,1.6136458598981167e-07,-0.041968280725546925,0.9991189400690996,-0.0003396732043996621,0.0010443358432855828,-0.06956097165091499,-0.006161470432882864,-0.02858765176919366,9.809360999357276
5.11,6.954362137340563e-07,1.624493662344826e-07,-0.042305537066635195,0.9991047163263984,0.0010320205266624288,0.00025044429531185467,-0.06553017127991881,-0.050512995636755854,0.029938976785647935,9.830315347719477
5.12,7.271552826932027e-07,1.6354250625094297e-07,-0.04264735585033243,0.9990901838535913,7.733595930538208e-06,-0.00041947746041258796,-0.0677993476300968,0.0048516609607090755,0.008772320661972869,9.812109677893403
5.13,7.588920541925566e-07,1.646409470978673e-07,-0.042989311626373,0.9990755283771044,-0.00020901443814254177,0.0002325425809029056,-0.07106295683220551,-0.011175305936972163,-0.05962918142750777,9.78264147975858
5.14,7.910887954658411e-07,1.657559646662615e-07,-0.04333621483313804,0.9990605410849983,0.0013351165971094581,-0.0006127696038258665,-0.07334687620376265,0.004276986283484302,-0.05583639795475777,9.793517472783883
5.15,8.241905290768304e-07,1.6690292778719928e-07,-0.043692860197406376,0.9990450070785509,-0.0004132207414674384,-0.0029360981738119156,-0.07267884626110052,0.047879282206834364,-0.02640186743237257,9.795416625274898
5.16,8.563042056453487e-07,1.6801638469890505e-07,-0.04403885001535726,0.9990298153085205,-0.0028194386640565967,-0.000779361158718461,-0.06999706181419416,0.01327135011105271,-0.051088650663764376,9.811955812247882
5.17,8.889490575250086e-07,1.6914872672851235e-07,-0.04439055514569791,0.9990142495437987,-0.00032203995683524134,-0.0016502209382296832,-0.07127345913561668,-0.02353097886222106,-0.040148632079698224,9.845466135873801
5.18,9.208238597473134e-07,1.7025615134481176e-07,-0.04473395327463691,0.9989989318727371,0.002427100915020853,0.004768720351447293,-0.07146400026704171,-0.027806823136358565,-0.028496225640766475,9.828521911460324
5.19,9.536409804643324e-07,1.7139834247949742e-07,-0.045087494029325624,0.9989830381163711,-0.0023423548329502782,0.0010992845050852645,-0.07042563533438279,-0.007365725137870637,-0.045113589067344036,9.815795920651277
5.2,9.872505377555573e-07,1.7256805204129256e-07,-0.04544956656548708,0.9989666307021814,0.0016723854805006976,-0.0009784138234083133,-0.0714894706329587,0.09135335668262573,-0.07159196802778378,9.819171104355087
5.21,1.0200380921259266e-06,1.7370891617027175e-07,-0.045802778254532495,0.9989504983783289,0.00018020326776809013,0.0007927170227335317,-0.0705132248946123,-0.01668553490347193,-0.06336077080378298,9.770862207808165
5.22,1.0533896136105086e-06,1.7486919221219238e-07,-0.046162060889326145,0.9989339602773707,0.0001292620475617808,-0.002808479835930764,-0.07536224456495434,0.004990338716086767,-0.06201169140297407,9.780189584186536
5.23,1.0852948633793044e-06,1.7597895398234909e-07,-0.046505758297196484,0.9989180191882135,0.00233590208245018,-0.0019447449722216248,-0.07583080143209264,0.06580436965722182,-0.03676205810465161,9.870494465976847
5.24,1.120134679543466e-06,1.771906461023661e-07,-0.04688106484288277,0.9989004751952337,-0.0018648551018720211,0.0016356422580732378,-0.07350029332306389,0.047931167262058344,-0.03446314648534043,9.7801807207243
5.25,1.1539802117687173e-06,1.78367580492028e-07,-0.04724565544108237,0.9988832973760549,0.0032072440278653708,-0.0022898755461998915,-0.06945543308521725,0.023962834076073355,-0.022924473170522285,9.780754476560976
5.26,1.1872559905911704e-06,1.7952456086105503e-07,-0.04760410380899249,0.9988662793238776,0.00024508166776794724,0.002283849447599939,-0.07061372606359159,-0.030013411701534074,-0.008580270885854098,9.79522685785155
5.2700000000000005,1.220770334838374e-06,1.806897146514818e-07,-0.04796511781483355,0.9988490091438015,-0.0002924270178938617,0.00031462142774017207,-0.07328678430012892,-0.031898585821592766,-0.022486402426738973,9.757566697751082
5.28,1.2530189444687605e-06,1.8181085587214482e-07,-0.04831249275825418,0.9988322692184216,-0.00045136267369558583,-0.0015283260688776588,-0.07799244302860664,0.07107961723693676,-0.016886056667725084,9.821065729313524
5.29,1.2877364726143546e-06,1.8302100942622162e-07,-0.04868645275701836,0.998814110792615,0.0020136580929905655,0.0017841335803519447,-0.0730939256196565,-0.038966923941768726,-0.015867411777379308,9.79710338176378
5.3,1.3226086931862447e-06,1.842361032736852e-07,-0.04906207535383922,0.9987957303773848,0.0038607084112115587,0.0005008536607219039,-0.0755621080087422,-0.01336276900834354,-0.011287734427537105,9.806401422785376
5.3100000000000005,1.3551044894488794e-06,1.853678551089978e-07,-0.04941209777895462,0.9987784748849805,0.000717941237946864,-0.0027270751990803193,-0.07387408877645536,-0.04220945052729941,-0.0582470412286023,9.85902694877362
5.32,1.3912189825869821e-06,1.8662488500209855e-07,-0.049801094826147675,0.9987591552866186,-0.002100833005617286,0.0026136919547836055,-0.0780528025469691,0.007801582673898751,-0.04301709379861286,9.761037528513725
5.33,1.4253311017760103e-06,1.878119270290048e-07,-0.05016852052581057,0.9987407656420981,-0.0022976842085230924,0.001190277253518223,-0.07431185736923904,0.024579783372222136,0.008761545228405072,9.81902868308201
5.34,1.4606281688952962e-06,1.8903968126385382e-07,-0.050548705621522576,0.9987215957389746,-3.8038135037714305e-05,0.0021642105543739684,-0.0755001597588481,0.00579229647547401,-0.07603933664318685,9.794042799667107
5.3500000000000005,1.495546819283913e-06,1.9025394486440804e-07,-0.05092481092869288,0.9987024883588353,0.002642791560622679,0.0003963045625852797,-0.07648954377680273,0.026884958077467134,-0.016569361079338922,9.816466885776128
5.36,1.5307934762537366e-06,1.914792910093904e-07,-0.05130444507277673,0.9986830578864385,-0.001167122550828236,-0.0003106590675082848,-0.07874951632556106,0.036259111518012574,-0.05386059692802337,9.889298751000442
5.37,1.5656848684149823e-06,1.9269204806770899e-07,-0.05168024856963509,0.9986636806314095,-0.004911489553982138,0.003247254899190449,-0.07069039451845642,-0.02342223456485974,-0.056172263261474044,9.819987538972992
5.38,1.6000979419384094e-06,1.9388798873338916e-07,-0.0520508961397568,0.9986444300432561,0.002713764004762951,0.0009217457795748095,-0.07490316835500777,0.050331598300990404,-0.07521858367762496,9.78710066399908
5.39,1.6349041520527147e-06,1.9508840253137371e-07,-0.05242584350454927,0.998624816052357,-0.0023704946717494086,-0.0008317716531538975,-0.07857475818779978,-0.001152891381616325,-0.03290593667684778,9.828746922207143
5.4,1.671362163423725e-06,1.9634682776387002e-07,-0.05281857055869102,0.9986041213625739,0.0027446853000511785,0.0005491258245114688,-0.0806858348303049,-0.004964115017348385,-0.06484631492848572,9.836849922402621
5.41,1.7076531207333134e-06,1.9760070278481248e-07,-0.05320948328858429,0.9985833683121411,0.0009342245640615414,0.0011352352882908192,-0.07529881935548116,0.0004759783595603487,-0.01634581560785122,9.806431715710666
